#
# Results on Thursday April 02 2020 14:42:02 UTC.
# USER AGENT: Mozilla/5.0 (Macintosh; Intel Mac OS X 10_15_3) AppleWebKit/605.1.15 (KHTML, like Gecko) Version/13.0.5 Safari/605.1.15
# Design number was non-random = 0
#
# Columns below this comment are as follows:
# 1. Time results were received.
# 2. MD5 hash of participant's IP address.
# 3. Controller name.
# 4. Item number.
# 5. Element number.
# 6. Type.
# 7. Group.
# 8. Field name.
# 9. Field value.
1585838522,d24e9765e054743d1a4482fa973d6b9b,Form,2,0,intro,NULL,name,Türkçe
1585838522,d24e9765e054743d1a4482fa973d6b9b,Form,2,0,intro,NULL,surname,sağ
1585838522,d24e9765e054743d1a4482fa973d6b9b,Form,2,0,intro,NULL,consent,yes
1585838522,d24e9765e054743d1a4482fa973d6b9b,Form,2,0,intro,NULL,consent,yes
1585838522,d24e9765e054743d1a4482fa973d6b9b,Form,2,0,intro,NULL,_REACTION_TIME_,158589
1585838522,d24e9765e054743d1a4482fa973d6b9b,Form,3,0,instruction,NULL,_REACTION_TIME_,7954
# Columns below this comment are as follows:
# 1. Time results were received.
# 2. MD5 hash of participant's IP address.
# 3. Controller name.
# 4. Item number.
# 5. Element number.
# 6. Type.
# 7. Group.
# 8. Word number.
# 9. Word.
# 10. Reading time.
# 11. Newline?
# 12. Sentence (or sentence MD5).
1585838522,d24e9765e054743d1a4482fa973d6b9b,DashedAcceptabilityJudgment,6,0,practice,NULL,1,Bu,739,False,Bu pratik yapmanız için ilk cümle.
1585838522,d24e9765e054743d1a4482fa973d6b9b,DashedAcceptabilityJudgment,6,0,practice,NULL,2,pratik,419,False,Bu pratik yapmanız için ilk cümle.
1585838522,d24e9765e054743d1a4482fa973d6b9b,DashedAcceptabilityJudgment,6,0,practice,NULL,3,yapmanız,270,False,Bu pratik yapmanız için ilk cümle.
1585838522,d24e9765e054743d1a4482fa973d6b9b,DashedAcceptabilityJudgment,6,0,practice,NULL,4,için,233,False,Bu pratik yapmanız için ilk cümle.
1585838522,d24e9765e054743d1a4482fa973d6b9b,DashedAcceptabilityJudgment,6,0,practice,NULL,5,ilk,237,False,Bu pratik yapmanız için ilk cümle.
1585838522,d24e9765e054743d1a4482fa973d6b9b,DashedAcceptabilityJudgment,6,0,practice,NULL,6,cümle.,202,False,Bu pratik yapmanız için ilk cümle.
# The lines below this comment are in groups of 2.
# The formats of the lines in each of these groups are as follows:
#
# Line 1:
#     Col. 1: Time results were received.
#     Col. 2: MD5 hash of participant's IP address.
#     Col. 3: Controller name.
#     Col. 4: Item number.
#     Col. 5: Element number.
#     Col. 6: Type.
#     Col. 7: Group.
#     Col. 8: Question (NULL if none).
#     Col. 9: Answer.
#     Col. 10: Whether or not answer was correct (NULL if N/A).
#     Col. 11: Time taken to answer.
# Line 2:
#     Col. 1: Time results were received.
#     Col. 2: MD5 hash of participant's IP address.
#     Col. 3: Controller name.
#     Col. 4: Item number.
#     Col. 5: Element number.
#     Col. 6: Type.
#     Col. 7: Group.
#     Col. 8: Word number.
#     Col. 9: Word.
#     Col. 10: Reading time.
#     Col. 11: Newline?
#     Col. 12: Sentence (or sentence MD5).
1585838522,d24e9765e054743d1a4482fa973d6b9b,DashedAcceptabilityJudgment,6,0,practice,NULL,Pratik yapmak için ilk cümleydi.,Evet (Q'ya basınız),NULL,10225
1585838522,d24e9765e054743d1a4482fa973d6b9b,DashedAcceptabilityJudgment,7,0,practice,NULL,1,Okumayı,476,False,Okumayı bitirdiğiniz her cümleden sonra bir ifade gelecek.
# Columns below this comment are as follows:
# 1. Time results were received.
# 2. MD5 hash of participant's IP address.
# 3. Controller name.
# 4. Item number.
# 5. Element number.
# 6. Type.
# 7. Group.
# 8. Word number.
# 9. Word.
# 10. Reading time.
# 11. Newline?
# 12. Sentence (or sentence MD5).
1585838522,d24e9765e054743d1a4482fa973d6b9b,DashedAcceptabilityJudgment,7,0,practice,NULL,2,bitirdiğiniz,330,False,Okumayı bitirdiğiniz her cümleden sonra bir ifade gelecek.
1585838522,d24e9765e054743d1a4482fa973d6b9b,DashedAcceptabilityJudgment,7,0,practice,NULL,3,her,257,False,Okumayı bitirdiğiniz her cümleden sonra bir ifade gelecek.
1585838522,d24e9765e054743d1a4482fa973d6b9b,DashedAcceptabilityJudgment,7,0,practice,NULL,4,cümleden,270,False,Okumayı bitirdiğiniz her cümleden sonra bir ifade gelecek.
1585838522,d24e9765e054743d1a4482fa973d6b9b,DashedAcceptabilityJudgment,7,0,practice,NULL,5,sonra,247,False,Okumayı bitirdiğiniz her cümleden sonra bir ifade gelecek.
1585838522,d24e9765e054743d1a4482fa973d6b9b,DashedAcceptabilityJudgment,7,0,practice,NULL,6,bir,242,False,Okumayı bitirdiğiniz her cümleden sonra bir ifade gelecek.
1585838522,d24e9765e054743d1a4482fa973d6b9b,DashedAcceptabilityJudgment,7,0,practice,NULL,7,ifade,227,False,Okumayı bitirdiğiniz her cümleden sonra bir ifade gelecek.
1585838522,d24e9765e054743d1a4482fa973d6b9b,DashedAcceptabilityJudgment,7,0,practice,NULL,8,gelecek.,253,False,Okumayı bitirdiğiniz her cümleden sonra bir ifade gelecek.
# The lines below this comment are in groups of 2.
# The formats of the lines in each of these groups are as follows:
#
# Line 1:
#     Col. 1: Time results were received.
#     Col. 2: MD5 hash of participant's IP address.
#     Col. 3: Controller name.
#     Col. 4: Item number.
#     Col. 5: Element number.
#     Col. 6: Type.
#     Col. 7: Group.
#     Col. 8: Question (NULL if none).
#     Col. 9: Answer.
#     Col. 10: Whether or not answer was correct (NULL if N/A).
#     Col. 11: Time taken to answer.
# Line 2:
#     Col. 1: Time results were received.
#     Col. 2: MD5 hash of participant's IP address.
#     Col. 3: Controller name.
#     Col. 4: Item number.
#     Col. 5: Element number.
#     Col. 6: Type.
#     Col. 7: Group.
#     Col. 8: Word number.
#     Col. 9: Word.
#     Col. 10: Reading time.
#     Col. 11: Newline?
#     Col. 12: Sentence (or sentence MD5).
1585838522,d24e9765e054743d1a4482fa973d6b9b,DashedAcceptabilityJudgment,7,0,practice,NULL,Her cümleden sonra bir ifade var.,Evet (Q'ya basınız),NULL,7508
1585838522,d24e9765e054743d1a4482fa973d6b9b,DashedAcceptabilityJudgment,8,0,practice,NULL,1,İfadeyi,400,False,İfadeyi okuduğunuz cümleye göre değerlendiriniz.
# Columns below this comment are as follows:
# 1. Time results were received.
# 2. MD5 hash of participant's IP address.
# 3. Controller name.
# 4. Item number.
# 5. Element number.
# 6. Type.
# 7. Group.
# 8. Word number.
# 9. Word.
# 10. Reading time.
# 11. Newline?
# 12. Sentence (or sentence MD5).
1585838522,d24e9765e054743d1a4482fa973d6b9b,DashedAcceptabilityJudgment,8,0,practice,NULL,2,okuduğunuz,246,False,İfadeyi okuduğunuz cümleye göre değerlendiriniz.
1585838522,d24e9765e054743d1a4482fa973d6b9b,DashedAcceptabilityJudgment,8,0,practice,NULL,3,cümleye,206,False,İfadeyi okuduğunuz cümleye göre değerlendiriniz.
1585838522,d24e9765e054743d1a4482fa973d6b9b,DashedAcceptabilityJudgment,8,0,practice,NULL,4,göre,235,False,İfadeyi okuduğunuz cümleye göre değerlendiriniz.
1585838522,d24e9765e054743d1a4482fa973d6b9b,DashedAcceptabilityJudgment,8,0,practice,NULL,5,değerlendiriniz.,252,False,İfadeyi okuduğunuz cümleye göre değerlendiriniz.
# The lines below this comment are in groups of 2.
# The formats of the lines in each of these groups are as follows:
#
# Line 1:
#     Col. 1: Time results were received.
#     Col. 2: MD5 hash of participant's IP address.
#     Col. 3: Controller name.
#     Col. 4: Item number.
#     Col. 5: Element number.
#     Col. 6: Type.
#     Col. 7: Group.
#     Col. 8: Question (NULL if none).
#     Col. 9: Answer.
#     Col. 10: Whether or not answer was correct (NULL if N/A).
#     Col. 11: Time taken to answer.
# Line 2:
#     Col. 1: Time results were received.
#     Col. 2: MD5 hash of participant's IP address.
#     Col. 3: Controller name.
#     Col. 4: Item number.
#     Col. 5: Element number.
#     Col. 6: Type.
#     Col. 7: Group.
#     Col. 8: Word number.
#     Col. 9: Word.
#     Col. 10: Reading time.
#     Col. 11: Newline?
#     Col. 12: Sentence (or sentence MD5).
1585838522,d24e9765e054743d1a4482fa973d6b9b,DashedAcceptabilityJudgment,8,0,practice,NULL,İfadeler okunan cümleye göre cevaplanacak.,Evet (Q'ya basınız),NULL,2908
1585838522,d24e9765e054743d1a4482fa973d6b9b,DashedAcceptabilityJudgment,9,0,practice,NULL,1,Bu,318,False,Bu deneyden önceki son cümle.
# Columns below this comment are as follows:
# 1. Time results were received.
# 2. MD5 hash of participant's IP address.
# 3. Controller name.
# 4. Item number.
# 5. Element number.
# 6. Type.
# 7. Group.
# 8. Word number.
# 9. Word.
# 10. Reading time.
# 11. Newline?
# 12. Sentence (or sentence MD5).
1585838522,d24e9765e054743d1a4482fa973d6b9b,DashedAcceptabilityJudgment,9,0,practice,NULL,2,deneyden,313,False,Bu deneyden önceki son cümle.
1585838522,d24e9765e054743d1a4482fa973d6b9b,DashedAcceptabilityJudgment,9,0,practice,NULL,3,önceki,240,False,Bu deneyden önceki son cümle.
1585838522,d24e9765e054743d1a4482fa973d6b9b,DashedAcceptabilityJudgment,9,0,practice,NULL,4,son,239,False,Bu deneyden önceki son cümle.
1585838522,d24e9765e054743d1a4482fa973d6b9b,DashedAcceptabilityJudgment,9,0,practice,NULL,5,cümle.,254,False,Bu deneyden önceki son cümle.
# The lines below this comment are in groups of 2.
# The formats of the lines in each of these groups are as follows:
#
# Line 1:
#     Col. 1: Time results were received.
#     Col. 2: MD5 hash of participant's IP address.
#     Col. 3: Controller name.
#     Col. 4: Item number.
#     Col. 5: Element number.
#     Col. 6: Type.
#     Col. 7: Group.
#     Col. 8: Question (NULL if none).
#     Col. 9: Answer.
#     Col. 10: Whether or not answer was correct (NULL if N/A).
#     Col. 11: Time taken to answer.
# Line 2:
#     Col. 1: Time results were received.
#     Col. 2: MD5 hash of participant's IP address.
#     Col. 3: Controller name.
#     Col. 4: Item number.
#     Col. 5: Element number.
#     Col. 6: Type.
#     Col. 7: Group.
#     Col. 8: Word number.
#     Col. 9: Word.
#     Col. 10: Reading time.
#     Col. 11: Newline?
#     Col. 12: Sentence (or sentence MD5).
1585838522,d24e9765e054743d1a4482fa973d6b9b,DashedAcceptabilityJudgment,9,0,practice,NULL,Bu son pratik cümlesiymiş.,Evet (Q'ya basınız),NULL,2702
1585838522,d24e9765e054743d1a4482fa973d6b9b,DashedAcceptabilityJudgment,246,0,filler,177,1,Tasarımlarını,398,False,Tasarımlarını arkadaşlarına gösteren çizer giysileri hemen dikmek istiyor.
# Columns below this comment are as follows:
# 1. Time results were received.
# 2. MD5 hash of participant's IP address.
# 3. Controller name.
# 4. Item number.
# 5. Element number.
# 6. Type.
# 7. Group.
# 8. Word number.
# 9. Word.
# 10. Reading time.
# 11. Newline?
# 12. Sentence (or sentence MD5).
1585838522,d24e9765e054743d1a4482fa973d6b9b,DashedAcceptabilityJudgment,246,0,filler,177,2,arkadaşlarına,251,False,Tasarımlarını arkadaşlarına gösteren çizer giysileri hemen dikmek istiyor.
1585838522,d24e9765e054743d1a4482fa973d6b9b,DashedAcceptabilityJudgment,246,0,filler,177,3,gösteren,323,False,Tasarımlarını arkadaşlarına gösteren çizer giysileri hemen dikmek istiyor.
1585838522,d24e9765e054743d1a4482fa973d6b9b,DashedAcceptabilityJudgment,246,0,filler,177,4,çizer,382,False,Tasarımlarını arkadaşlarına gösteren çizer giysileri hemen dikmek istiyor.
1585838522,d24e9765e054743d1a4482fa973d6b9b,DashedAcceptabilityJudgment,246,0,filler,177,5,giysileri,498,False,Tasarımlarını arkadaşlarına gösteren çizer giysileri hemen dikmek istiyor.
1585838522,d24e9765e054743d1a4482fa973d6b9b,DashedAcceptabilityJudgment,246,0,filler,177,6,hemen,501,False,Tasarımlarını arkadaşlarına gösteren çizer giysileri hemen dikmek istiyor.
1585838522,d24e9765e054743d1a4482fa973d6b9b,DashedAcceptabilityJudgment,246,0,filler,177,7,dikmek,413,False,Tasarımlarını arkadaşlarına gösteren çizer giysileri hemen dikmek istiyor.
1585838522,d24e9765e054743d1a4482fa973d6b9b,DashedAcceptabilityJudgment,246,0,filler,177,8,istiyor.,432,False,Tasarımlarını arkadaşlarına gösteren çizer giysileri hemen dikmek istiyor.
# The lines below this comment are in groups of 2.
# The formats of the lines in each of these groups are as follows:
#
# Line 1:
#     Col. 1: Time results were received.
#     Col. 2: MD5 hash of participant's IP address.
#     Col. 3: Controller name.
#     Col. 4: Item number.
#     Col. 5: Element number.
#     Col. 6: Type.
#     Col. 7: Group.
#     Col. 8: Question (NULL if none).
#     Col. 9: Answer.
#     Col. 10: Whether or not answer was correct (NULL if N/A).
#     Col. 11: Time taken to answer.
# Line 2:
#     Col. 1: Time results were received.
#     Col. 2: MD5 hash of participant's IP address.
#     Col. 3: Controller name.
#     Col. 4: Item number.
#     Col. 5: Element number.
#     Col. 6: Type.
#     Col. 7: Group.
#     Col. 8: Word number.
#     Col. 9: Word.
#     Col. 10: Reading time.
#     Col. 11: Newline?
#     Col. 12: Sentence (or sentence MD5).
1585838522,d24e9765e054743d1a4482fa973d6b9b,DashedAcceptabilityJudgment,246,0,filler,177,Çizer giysileri başkasına diktirecekmiş.,Hayır (P'ye basınız),NULL,16450
1585838522,d24e9765e054743d1a4482fa973d6b9b,DashedAcceptabilityJudgment,10,0,expSA_a,1,1,Baron,521,False,Baron ve şövalyeyi ödüllendiren kral onları şatoda dinleyecek.
# Columns below this comment are as follows:
# 1. Time results were received.
# 2. MD5 hash of participant's IP address.
# 3. Controller name.
# 4. Item number.
# 5. Element number.
# 6. Type.
# 7. Group.
# 8. Word number.
# 9. Word.
# 10. Reading time.
# 11. Newline?
# 12. Sentence (or sentence MD5).
1585838522,d24e9765e054743d1a4482fa973d6b9b,DashedAcceptabilityJudgment,10,0,expSA_a,1,2,ve,421,False,Baron ve şövalyeyi ödüllendiren kral onları şatoda dinleyecek.
1585838522,d24e9765e054743d1a4482fa973d6b9b,DashedAcceptabilityJudgment,10,0,expSA_a,1,3,şövalyeyi,403,False,Baron ve şövalyeyi ödüllendiren kral onları şatoda dinleyecek.
1585838522,d24e9765e054743d1a4482fa973d6b9b,DashedAcceptabilityJudgment,10,0,expSA_a,1,4,ödüllendiren,521,False,Baron ve şövalyeyi ödüllendiren kral onları şatoda dinleyecek.
1585838522,d24e9765e054743d1a4482fa973d6b9b,DashedAcceptabilityJudgment,10,0,expSA_a,1,5,kral,515,False,Baron ve şövalyeyi ödüllendiren kral onları şatoda dinleyecek.
1585838522,d24e9765e054743d1a4482fa973d6b9b,DashedAcceptabilityJudgment,10,0,expSA_a,1,6,onları,798,False,Baron ve şövalyeyi ödüllendiren kral onları şatoda dinleyecek.
1585838522,d24e9765e054743d1a4482fa973d6b9b,DashedAcceptabilityJudgment,10,0,expSA_a,1,7,şatoda,420,False,Baron ve şövalyeyi ödüllendiren kral onları şatoda dinleyecek.
1585838522,d24e9765e054743d1a4482fa973d6b9b,DashedAcceptabilityJudgment,10,0,expSA_a,1,8,dinleyecek.,435,False,Baron ve şövalyeyi ödüllendiren kral onları şatoda dinleyecek.
# The lines below this comment are in groups of 2.
# The formats of the lines in each of these groups are as follows:
#
# Line 1:
#     Col. 1: Time results were received.
#     Col. 2: MD5 hash of participant's IP address.
#     Col. 3: Controller name.
#     Col. 4: Item number.
#     Col. 5: Element number.
#     Col. 6: Type.
#     Col. 7: Group.
#     Col. 8: Question (NULL if none).
#     Col. 9: Answer.
#     Col. 10: Whether or not answer was correct (NULL if N/A).
#     Col. 11: Time taken to answer.
# Line 2:
#     Col. 1: Time results were received.
#     Col. 2: MD5 hash of participant's IP address.
#     Col. 3: Controller name.
#     Col. 4: Item number.
#     Col. 5: Element number.
#     Col. 6: Type.
#     Col. 7: Group.
#     Col. 8: Word number.
#     Col. 9: Word.
#     Col. 10: Reading time.
#     Col. 11: Newline?
#     Col. 12: Sentence (or sentence MD5).
1585838522,d24e9765e054743d1a4482fa973d6b9b,DashedAcceptabilityJudgment,10,0,expSA_a,1,Baron kralı dinleyecek.,Hayır (P'ye basınız),NULL,3683
1585838522,d24e9765e054743d1a4482fa973d6b9b,DashedAcceptabilityJudgment,210,0,filler,141,1,Yaz,403,False,Yaz tatilini geçirmek için gittiği tatil yerinden esmerleşerek geldi.
# Columns below this comment are as follows:
# 1. Time results were received.
# 2. MD5 hash of participant's IP address.
# 3. Controller name.
# 4. Item number.
# 5. Element number.
# 6. Type.
# 7. Group.
# 8. Word number.
# 9. Word.
# 10. Reading time.
# 11. Newline?
# 12. Sentence (or sentence MD5).
1585838522,d24e9765e054743d1a4482fa973d6b9b,DashedAcceptabilityJudgment,210,0,filler,141,2,tatilini,301,False,Yaz tatilini geçirmek için gittiği tatil yerinden esmerleşerek geldi.
1585838522,d24e9765e054743d1a4482fa973d6b9b,DashedAcceptabilityJudgment,210,0,filler,141,3,geçirmek,328,False,Yaz tatilini geçirmek için gittiği tatil yerinden esmerleşerek geldi.
1585838522,d24e9765e054743d1a4482fa973d6b9b,DashedAcceptabilityJudgment,210,0,filler,141,4,için,354,False,Yaz tatilini geçirmek için gittiği tatil yerinden esmerleşerek geldi.
1585838522,d24e9765e054743d1a4482fa973d6b9b,DashedAcceptabilityJudgment,210,0,filler,141,5,gittiği,318,False,Yaz tatilini geçirmek için gittiği tatil yerinden esmerleşerek geldi.
1585838522,d24e9765e054743d1a4482fa973d6b9b,DashedAcceptabilityJudgment,210,0,filler,141,6,tatil,491,False,Yaz tatilini geçirmek için gittiği tatil yerinden esmerleşerek geldi.
1585838522,d24e9765e054743d1a4482fa973d6b9b,DashedAcceptabilityJudgment,210,0,filler,141,7,yerinden,411,False,Yaz tatilini geçirmek için gittiği tatil yerinden esmerleşerek geldi.
1585838522,d24e9765e054743d1a4482fa973d6b9b,DashedAcceptabilityJudgment,210,0,filler,141,8,esmerleşerek,374,False,Yaz tatilini geçirmek için gittiği tatil yerinden esmerleşerek geldi.
1585838522,d24e9765e054743d1a4482fa973d6b9b,DashedAcceptabilityJudgment,210,0,filler,141,9,geldi.,365,False,Yaz tatilini geçirmek için gittiği tatil yerinden esmerleşerek geldi.
# The lines below this comment are in groups of 2.
# The formats of the lines in each of these groups are as follows:
#
# Line 1:
#     Col. 1: Time results were received.
#     Col. 2: MD5 hash of participant's IP address.
#     Col. 3: Controller name.
#     Col. 4: Item number.
#     Col. 5: Element number.
#     Col. 6: Type.
#     Col. 7: Group.
#     Col. 8: Question (NULL if none).
#     Col. 9: Answer.
#     Col. 10: Whether or not answer was correct (NULL if N/A).
#     Col. 11: Time taken to answer.
# Line 2:
#     Col. 1: Time results were received.
#     Col. 2: MD5 hash of participant's IP address.
#     Col. 3: Controller name.
#     Col. 4: Item number.
#     Col. 5: Element number.
#     Col. 6: Type.
#     Col. 7: Group.
#     Col. 8: Word number.
#     Col. 9: Word.
#     Col. 10: Reading time.
#     Col. 11: Newline?
#     Col. 12: Sentence (or sentence MD5).
1585838522,d24e9765e054743d1a4482fa973d6b9b,DashedAcceptabilityJudgment,210,0,filler,141,Birisi yaz tatiline gitmiş.,Evet (Q'ya basınız),NULL,2728
1585838522,d24e9765e054743d1a4482fa973d6b9b,DashedAcceptabilityJudgment,198,0,filler,129,1,Sayfalarını,465,False,Sayfalarını karıştırdığı kitabı bir kenara koyup uyumaya başladı.
# Columns below this comment are as follows:
# 1. Time results were received.
# 2. MD5 hash of participant's IP address.
# 3. Controller name.
# 4. Item number.
# 5. Element number.
# 6. Type.
# 7. Group.
# 8. Word number.
# 9. Word.
# 10. Reading time.
# 11. Newline?
# 12. Sentence (or sentence MD5).
1585838522,d24e9765e054743d1a4482fa973d6b9b,DashedAcceptabilityJudgment,198,0,filler,129,2,karıştırdığı,464,False,Sayfalarını karıştırdığı kitabı bir kenara koyup uyumaya başladı.
1585838522,d24e9765e054743d1a4482fa973d6b9b,DashedAcceptabilityJudgment,198,0,filler,129,3,kitabı,530,False,Sayfalarını karıştırdığı kitabı bir kenara koyup uyumaya başladı.
1585838522,d24e9765e054743d1a4482fa973d6b9b,DashedAcceptabilityJudgment,198,0,filler,129,4,bir,624,False,Sayfalarını karıştırdığı kitabı bir kenara koyup uyumaya başladı.
1585838522,d24e9765e054743d1a4482fa973d6b9b,DashedAcceptabilityJudgment,198,0,filler,129,5,kenara,423,False,Sayfalarını karıştırdığı kitabı bir kenara koyup uyumaya başladı.
1585838522,d24e9765e054743d1a4482fa973d6b9b,DashedAcceptabilityJudgment,198,0,filler,129,6,koyup,350,False,Sayfalarını karıştırdığı kitabı bir kenara koyup uyumaya başladı.
1585838522,d24e9765e054743d1a4482fa973d6b9b,DashedAcceptabilityJudgment,198,0,filler,129,7,uyumaya,421,False,Sayfalarını karıştırdığı kitabı bir kenara koyup uyumaya başladı.
1585838522,d24e9765e054743d1a4482fa973d6b9b,DashedAcceptabilityJudgment,198,0,filler,129,8,başladı.,774,False,Sayfalarını karıştırdığı kitabı bir kenara koyup uyumaya başladı.
# The lines below this comment are in groups of 2.
# The formats of the lines in each of these groups are as follows:
#
# Line 1:
#     Col. 1: Time results were received.
#     Col. 2: MD5 hash of participant's IP address.
#     Col. 3: Controller name.
#     Col. 4: Item number.
#     Col. 5: Element number.
#     Col. 6: Type.
#     Col. 7: Group.
#     Col. 8: Question (NULL if none).
#     Col. 9: Answer.
#     Col. 10: Whether or not answer was correct (NULL if N/A).
#     Col. 11: Time taken to answer.
# Line 2:
#     Col. 1: Time results were received.
#     Col. 2: MD5 hash of participant's IP address.
#     Col. 3: Controller name.
#     Col. 4: Item number.
#     Col. 5: Element number.
#     Col. 6: Type.
#     Col. 7: Group.
#     Col. 8: Word number.
#     Col. 9: Word.
#     Col. 10: Reading time.
#     Col. 11: Newline?
#     Col. 12: Sentence (or sentence MD5).
1585838522,d24e9765e054743d1a4482fa973d6b9b,DashedAcceptabilityJudgment,198,0,filler,129,Defteri kenara koydu.,Hayır (P'ye basınız),NULL,9130
1585838522,d24e9765e054743d1a4482fa973d6b9b,DashedAcceptabilityJudgment,141,0,expSA_d,12,1,Hamal,432,False,Hamal ve kurnaz tezgahtarı bulan sütçü birbirlerini pazarda kandırdı.
# Columns below this comment are as follows:
# 1. Time results were received.
# 2. MD5 hash of participant's IP address.
# 3. Controller name.
# 4. Item number.
# 5. Element number.
# 6. Type.
# 7. Group.
# 8. Word number.
# 9. Word.
# 10. Reading time.
# 11. Newline?
# 12. Sentence (or sentence MD5).
1585838522,d24e9765e054743d1a4482fa973d6b9b,DashedAcceptabilityJudgment,141,0,expSA_d,12,2,ve,263,False,Hamal ve kurnaz tezgahtarı bulan sütçü birbirlerini pazarda kandırdı.
1585838522,d24e9765e054743d1a4482fa973d6b9b,DashedAcceptabilityJudgment,141,0,expSA_d,12,3,kurnaz,278,False,Hamal ve kurnaz tezgahtarı bulan sütçü birbirlerini pazarda kandırdı.
1585838522,d24e9765e054743d1a4482fa973d6b9b,DashedAcceptabilityJudgment,141,0,expSA_d,12,4,tezgahtarı,396,False,Hamal ve kurnaz tezgahtarı bulan sütçü birbirlerini pazarda kandırdı.
1585838522,d24e9765e054743d1a4482fa973d6b9b,DashedAcceptabilityJudgment,141,0,expSA_d,12,5,bulan,326,False,Hamal ve kurnaz tezgahtarı bulan sütçü birbirlerini pazarda kandırdı.
1585838522,d24e9765e054743d1a4482fa973d6b9b,DashedAcceptabilityJudgment,141,0,expSA_d,12,6,sütçü,406,False,Hamal ve kurnaz tezgahtarı bulan sütçü birbirlerini pazarda kandırdı.
1585838522,d24e9765e054743d1a4482fa973d6b9b,DashedAcceptabilityJudgment,141,0,expSA_d,12,7,birbirlerini,544,False,Hamal ve kurnaz tezgahtarı bulan sütçü birbirlerini pazarda kandırdı.
1585838522,d24e9765e054743d1a4482fa973d6b9b,DashedAcceptabilityJudgment,141,0,expSA_d,12,8,pazarda,1076,False,Hamal ve kurnaz tezgahtarı bulan sütçü birbirlerini pazarda kandırdı.
1585838522,d24e9765e054743d1a4482fa973d6b9b,DashedAcceptabilityJudgment,141,0,expSA_d,12,9,kandırdı.,404,False,Hamal ve kurnaz tezgahtarı bulan sütçü birbirlerini pazarda kandırdı.
# The lines below this comment are in groups of 2.
# The formats of the lines in each of these groups are as follows:
#
# Line 1:
#     Col. 1: Time results were received.
#     Col. 2: MD5 hash of participant's IP address.
#     Col. 3: Controller name.
#     Col. 4: Item number.
#     Col. 5: Element number.
#     Col. 6: Type.
#     Col. 7: Group.
#     Col. 8: Question (NULL if none).
#     Col. 9: Answer.
#     Col. 10: Whether or not answer was correct (NULL if N/A).
#     Col. 11: Time taken to answer.
# Line 2:
#     Col. 1: Time results were received.
#     Col. 2: MD5 hash of participant's IP address.
#     Col. 3: Controller name.
#     Col. 4: Item number.
#     Col. 5: Element number.
#     Col. 6: Type.
#     Col. 7: Group.
#     Col. 8: Word number.
#     Col. 9: Word.
#     Col. 10: Reading time.
#     Col. 11: Newline?
#     Col. 12: Sentence (or sentence MD5).
1585838522,d24e9765e054743d1a4482fa973d6b9b,DashedAcceptabilityJudgment,141,0,expSA_d,12,Hamal sütçüyü kandırdı.,Evet (Q'ya basınız),NULL,8847
1585838522,d24e9765e054743d1a4482fa973d6b9b,DashedAcceptabilityJudgment,228,0,filler,159,1,Hep,562,False,Hep beraber gittiğimiz piknikte oynadığımız oyunları çok net hatırlıyorum.
# Columns below this comment are as follows:
# 1. Time results were received.
# 2. MD5 hash of participant's IP address.
# 3. Controller name.
# 4. Item number.
# 5. Element number.
# 6. Type.
# 7. Group.
# 8. Word number.
# 9. Word.
# 10. Reading time.
# 11. Newline?
# 12. Sentence (or sentence MD5).
1585838522,d24e9765e054743d1a4482fa973d6b9b,DashedAcceptabilityJudgment,228,0,filler,159,2,beraber,302,False,Hep beraber gittiğimiz piknikte oynadığımız oyunları çok net hatırlıyorum.
1585838522,d24e9765e054743d1a4482fa973d6b9b,DashedAcceptabilityJudgment,228,0,filler,159,3,gittiğimiz,339,False,Hep beraber gittiğimiz piknikte oynadığımız oyunları çok net hatırlıyorum.
1585838522,d24e9765e054743d1a4482fa973d6b9b,DashedAcceptabilityJudgment,228,0,filler,159,4,piknikte,321,False,Hep beraber gittiğimiz piknikte oynadığımız oyunları çok net hatırlıyorum.
1585838522,d24e9765e054743d1a4482fa973d6b9b,DashedAcceptabilityJudgment,228,0,filler,159,5,oynadığımız,610,False,Hep beraber gittiğimiz piknikte oynadığımız oyunları çok net hatırlıyorum.
1585838522,d24e9765e054743d1a4482fa973d6b9b,DashedAcceptabilityJudgment,228,0,filler,159,6,oyunları,752,False,Hep beraber gittiğimiz piknikte oynadığımız oyunları çok net hatırlıyorum.
1585838522,d24e9765e054743d1a4482fa973d6b9b,DashedAcceptabilityJudgment,228,0,filler,159,7,çok,416,False,Hep beraber gittiğimiz piknikte oynadığımız oyunları çok net hatırlıyorum.
1585838522,d24e9765e054743d1a4482fa973d6b9b,DashedAcceptabilityJudgment,228,0,filler,159,8,net,317,False,Hep beraber gittiğimiz piknikte oynadığımız oyunları çok net hatırlıyorum.
1585838522,d24e9765e054743d1a4482fa973d6b9b,DashedAcceptabilityJudgment,228,0,filler,159,9,hatırlıyorum.,375,False,Hep beraber gittiğimiz piknikte oynadığımız oyunları çok net hatırlıyorum.
# The lines below this comment are in groups of 2.
# The formats of the lines in each of these groups are as follows:
#
# Line 1:
#     Col. 1: Time results were received.
#     Col. 2: MD5 hash of participant's IP address.
#     Col. 3: Controller name.
#     Col. 4: Item number.
#     Col. 5: Element number.
#     Col. 6: Type.
#     Col. 7: Group.
#     Col. 8: Question (NULL if none).
#     Col. 9: Answer.
#     Col. 10: Whether or not answer was correct (NULL if N/A).
#     Col. 11: Time taken to answer.
# Line 2:
#     Col. 1: Time results were received.
#     Col. 2: MD5 hash of participant's IP address.
#     Col. 3: Controller name.
#     Col. 4: Item number.
#     Col. 5: Element number.
#     Col. 6: Type.
#     Col. 7: Group.
#     Col. 8: Word number.
#     Col. 9: Word.
#     Col. 10: Reading time.
#     Col. 11: Newline?
#     Col. 12: Sentence (or sentence MD5).
1585838522,d24e9765e054743d1a4482fa973d6b9b,DashedAcceptabilityJudgment,228,0,filler,159,Oynadığı oyunları hatırlıyormuş.,Evet (Q'ya basınız),NULL,9236
1585838522,d24e9765e054743d1a4482fa973d6b9b,DashedAcceptabilityJudgment,236,0,filler,167,1,Dersi,352,False,Dersi biten öğrenciler tatillerini geçirmek üzere ailelerinin yanına gidecek.
# Columns below this comment are as follows:
# 1. Time results were received.
# 2. MD5 hash of participant's IP address.
# 3. Controller name.
# 4. Item number.
# 5. Element number.
# 6. Type.
# 7. Group.
# 8. Word number.
# 9. Word.
# 10. Reading time.
# 11. Newline?
# 12. Sentence (or sentence MD5).
1585838522,d24e9765e054743d1a4482fa973d6b9b,DashedAcceptabilityJudgment,236,0,filler,167,2,biten,261,False,Dersi biten öğrenciler tatillerini geçirmek üzere ailelerinin yanına gidecek.
1585838522,d24e9765e054743d1a4482fa973d6b9b,DashedAcceptabilityJudgment,236,0,filler,167,3,öğrenciler,264,False,Dersi biten öğrenciler tatillerini geçirmek üzere ailelerinin yanına gidecek.
1585838522,d24e9765e054743d1a4482fa973d6b9b,DashedAcceptabilityJudgment,236,0,filler,167,4,tatillerini,297,False,Dersi biten öğrenciler tatillerini geçirmek üzere ailelerinin yanına gidecek.
1585838522,d24e9765e054743d1a4482fa973d6b9b,DashedAcceptabilityJudgment,236,0,filler,167,5,geçirmek,398,False,Dersi biten öğrenciler tatillerini geçirmek üzere ailelerinin yanına gidecek.
1585838522,d24e9765e054743d1a4482fa973d6b9b,DashedAcceptabilityJudgment,236,0,filler,167,6,üzere,298,False,Dersi biten öğrenciler tatillerini geçirmek üzere ailelerinin yanına gidecek.
1585838522,d24e9765e054743d1a4482fa973d6b9b,DashedAcceptabilityJudgment,236,0,filler,167,7,ailelerinin,318,False,Dersi biten öğrenciler tatillerini geçirmek üzere ailelerinin yanına gidecek.
1585838522,d24e9765e054743d1a4482fa973d6b9b,DashedAcceptabilityJudgment,236,0,filler,167,8,yanına,866,False,Dersi biten öğrenciler tatillerini geçirmek üzere ailelerinin yanına gidecek.
1585838522,d24e9765e054743d1a4482fa973d6b9b,DashedAcceptabilityJudgment,236,0,filler,167,9,gidecek.,330,False,Dersi biten öğrenciler tatillerini geçirmek üzere ailelerinin yanına gidecek.
# The lines below this comment are in groups of 2.
# The formats of the lines in each of these groups are as follows:
#
# Line 1:
#     Col. 1: Time results were received.
#     Col. 2: MD5 hash of participant's IP address.
#     Col. 3: Controller name.
#     Col. 4: Item number.
#     Col. 5: Element number.
#     Col. 6: Type.
#     Col. 7: Group.
#     Col. 8: Question (NULL if none).
#     Col. 9: Answer.
#     Col. 10: Whether or not answer was correct (NULL if N/A).
#     Col. 11: Time taken to answer.
# Line 2:
#     Col. 1: Time results were received.
#     Col. 2: MD5 hash of participant's IP address.
#     Col. 3: Controller name.
#     Col. 4: Item number.
#     Col. 5: Element number.
#     Col. 6: Type.
#     Col. 7: Group.
#     Col. 8: Word number.
#     Col. 9: Word.
#     Col. 10: Reading time.
#     Col. 11: Newline?
#     Col. 12: Sentence (or sentence MD5).
1585838522,d24e9765e054743d1a4482fa973d6b9b,DashedAcceptabilityJudgment,236,0,filler,167,Öğrencilerin dersi bitmemiş.,Hayır (P'ye basınız),NULL,7535
1585838522,d24e9765e054743d1a4482fa973d6b9b,DashedAcceptabilityJudgment,51,0,expSA_b,2,1,Hemşire,604,False,Hemşire ve hastayı gören doktor birbirlerine ameliyatı hatırlattı.
# Columns below this comment are as follows:
# 1. Time results were received.
# 2. MD5 hash of participant's IP address.
# 3. Controller name.
# 4. Item number.
# 5. Element number.
# 6. Type.
# 7. Group.
# 8. Word number.
# 9. Word.
# 10. Reading time.
# 11. Newline?
# 12. Sentence (or sentence MD5).
1585838522,d24e9765e054743d1a4482fa973d6b9b,DashedAcceptabilityJudgment,51,0,expSA_b,2,2,ve,367,False,Hemşire ve hastayı gören doktor birbirlerine ameliyatı hatırlattı.
1585838522,d24e9765e054743d1a4482fa973d6b9b,DashedAcceptabilityJudgment,51,0,expSA_b,2,3,hastayı,292,False,Hemşire ve hastayı gören doktor birbirlerine ameliyatı hatırlattı.
1585838522,d24e9765e054743d1a4482fa973d6b9b,DashedAcceptabilityJudgment,51,0,expSA_b,2,4,gören,403,False,Hemşire ve hastayı gören doktor birbirlerine ameliyatı hatırlattı.
1585838522,d24e9765e054743d1a4482fa973d6b9b,DashedAcceptabilityJudgment,51,0,expSA_b,2,5,doktor,516,False,Hemşire ve hastayı gören doktor birbirlerine ameliyatı hatırlattı.
1585838522,d24e9765e054743d1a4482fa973d6b9b,DashedAcceptabilityJudgment,51,0,expSA_b,2,6,birbirlerine,402,False,Hemşire ve hastayı gören doktor birbirlerine ameliyatı hatırlattı.
1585838522,d24e9765e054743d1a4482fa973d6b9b,DashedAcceptabilityJudgment,51,0,expSA_b,2,7,ameliyatı,352,False,Hemşire ve hastayı gören doktor birbirlerine ameliyatı hatırlattı.
1585838522,d24e9765e054743d1a4482fa973d6b9b,DashedAcceptabilityJudgment,51,0,expSA_b,2,8,hatırlattı.,323,False,Hemşire ve hastayı gören doktor birbirlerine ameliyatı hatırlattı.
# The lines below this comment are in groups of 2.
# The formats of the lines in each of these groups are as follows:
#
# Line 1:
#     Col. 1: Time results were received.
#     Col. 2: MD5 hash of participant's IP address.
#     Col. 3: Controller name.
#     Col. 4: Item number.
#     Col. 5: Element number.
#     Col. 6: Type.
#     Col. 7: Group.
#     Col. 8: Question (NULL if none).
#     Col. 9: Answer.
#     Col. 10: Whether or not answer was correct (NULL if N/A).
#     Col. 11: Time taken to answer.
# Line 2:
#     Col. 1: Time results were received.
#     Col. 2: MD5 hash of participant's IP address.
#     Col. 3: Controller name.
#     Col. 4: Item number.
#     Col. 5: Element number.
#     Col. 6: Type.
#     Col. 7: Group.
#     Col. 8: Word number.
#     Col. 9: Word.
#     Col. 10: Reading time.
#     Col. 11: Newline?
#     Col. 12: Sentence (or sentence MD5).
1585838522,d24e9765e054743d1a4482fa973d6b9b,DashedAcceptabilityJudgment,51,0,expSA_b,2,Hemşire doktora ameliyatı hatırlattı.,Evet (Q'ya basınız),NULL,3499
1585838522,d24e9765e054743d1a4482fa973d6b9b,DashedAcceptabilityJudgment,186,0,filler,117,1,Aşçı,317,False,Aşçı pişirdiği yemekleri müdüre ve hizmetliye gururla gösterdi.
# Columns below this comment are as follows:
# 1. Time results were received.
# 2. MD5 hash of participant's IP address.
# 3. Controller name.
# 4. Item number.
# 5. Element number.
# 6. Type.
# 7. Group.
# 8. Word number.
# 9. Word.
# 10. Reading time.
# 11. Newline?
# 12. Sentence (or sentence MD5).
1585838522,d24e9765e054743d1a4482fa973d6b9b,DashedAcceptabilityJudgment,186,0,filler,117,2,pişirdiği,332,False,Aşçı pişirdiği yemekleri müdüre ve hizmetliye gururla gösterdi.
1585838522,d24e9765e054743d1a4482fa973d6b9b,DashedAcceptabilityJudgment,186,0,filler,117,3,yemekleri,407,False,Aşçı pişirdiği yemekleri müdüre ve hizmetliye gururla gösterdi.
1585838522,d24e9765e054743d1a4482fa973d6b9b,DashedAcceptabilityJudgment,186,0,filler,117,4,müdüre,292,False,Aşçı pişirdiği yemekleri müdüre ve hizmetliye gururla gösterdi.
1585838522,d24e9765e054743d1a4482fa973d6b9b,DashedAcceptabilityJudgment,186,0,filler,117,5,ve,301,False,Aşçı pişirdiği yemekleri müdüre ve hizmetliye gururla gösterdi.
1585838522,d24e9765e054743d1a4482fa973d6b9b,DashedAcceptabilityJudgment,186,0,filler,117,6,hizmetliye,259,False,Aşçı pişirdiği yemekleri müdüre ve hizmetliye gururla gösterdi.
1585838522,d24e9765e054743d1a4482fa973d6b9b,DashedAcceptabilityJudgment,186,0,filler,117,7,gururla,254,False,Aşçı pişirdiği yemekleri müdüre ve hizmetliye gururla gösterdi.
1585838522,d24e9765e054743d1a4482fa973d6b9b,DashedAcceptabilityJudgment,186,0,filler,117,8,gösterdi.,278,False,Aşçı pişirdiği yemekleri müdüre ve hizmetliye gururla gösterdi.
# The lines below this comment are in groups of 2.
# The formats of the lines in each of these groups are as follows:
#
# Line 1:
#     Col. 1: Time results were received.
#     Col. 2: MD5 hash of participant's IP address.
#     Col. 3: Controller name.
#     Col. 4: Item number.
#     Col. 5: Element number.
#     Col. 6: Type.
#     Col. 7: Group.
#     Col. 8: Question (NULL if none).
#     Col. 9: Answer.
#     Col. 10: Whether or not answer was correct (NULL if N/A).
#     Col. 11: Time taken to answer.
# Line 2:
#     Col. 1: Time results were received.
#     Col. 2: MD5 hash of participant's IP address.
#     Col. 3: Controller name.
#     Col. 4: Item number.
#     Col. 5: Element number.
#     Col. 6: Type.
#     Col. 7: Group.
#     Col. 8: Word number.
#     Col. 9: Word.
#     Col. 10: Reading time.
#     Col. 11: Newline?
#     Col. 12: Sentence (or sentence MD5).
1585838522,d24e9765e054743d1a4482fa973d6b9b,DashedAcceptabilityJudgment,186,0,filler,117,Aşçı yemekleri gösterdi.,Evet (Q'ya basınız),NULL,1618
1585838522,d24e9765e054743d1a4482fa973d6b9b,DashedAcceptabilityJudgment,247,0,filler,178,1,Yola,324,False,Yola çıkmadan önce hazırlıklarını tamamlayan kaptan geminin yükünü azalttı.
# Columns below this comment are as follows:
# 1. Time results were received.
# 2. MD5 hash of participant's IP address.
# 3. Controller name.
# 4. Item number.
# 5. Element number.
# 6. Type.
# 7. Group.
# 8. Word number.
# 9. Word.
# 10. Reading time.
# 11. Newline?
# 12. Sentence (or sentence MD5).
1585838522,d24e9765e054743d1a4482fa973d6b9b,DashedAcceptabilityJudgment,247,0,filler,178,2,çıkmadan,318,False,Yola çıkmadan önce hazırlıklarını tamamlayan kaptan geminin yükünü azalttı.
1585838522,d24e9765e054743d1a4482fa973d6b9b,DashedAcceptabilityJudgment,247,0,filler,178,3,önce,271,False,Yola çıkmadan önce hazırlıklarını tamamlayan kaptan geminin yükünü azalttı.
1585838522,d24e9765e054743d1a4482fa973d6b9b,DashedAcceptabilityJudgment,247,0,filler,178,4,hazırlıklarını,339,False,Yola çıkmadan önce hazırlıklarını tamamlayan kaptan geminin yükünü azalttı.
1585838522,d24e9765e054743d1a4482fa973d6b9b,DashedAcceptabilityJudgment,247,0,filler,178,5,tamamlayan,313,False,Yola çıkmadan önce hazırlıklarını tamamlayan kaptan geminin yükünü azalttı.
1585838522,d24e9765e054743d1a4482fa973d6b9b,DashedAcceptabilityJudgment,247,0,filler,178,6,kaptan,329,False,Yola çıkmadan önce hazırlıklarını tamamlayan kaptan geminin yükünü azalttı.
1585838522,d24e9765e054743d1a4482fa973d6b9b,DashedAcceptabilityJudgment,247,0,filler,178,7,geminin,410,False,Yola çıkmadan önce hazırlıklarını tamamlayan kaptan geminin yükünü azalttı.
1585838522,d24e9765e054743d1a4482fa973d6b9b,DashedAcceptabilityJudgment,247,0,filler,178,8,yükünü,376,False,Yola çıkmadan önce hazırlıklarını tamamlayan kaptan geminin yükünü azalttı.
1585838522,d24e9765e054743d1a4482fa973d6b9b,DashedAcceptabilityJudgment,247,0,filler,178,9,azalttı.,351,False,Yola çıkmadan önce hazırlıklarını tamamlayan kaptan geminin yükünü azalttı.
# The lines below this comment are in groups of 2.
# The formats of the lines in each of these groups are as follows:
#
# Line 1:
#     Col. 1: Time results were received.
#     Col. 2: MD5 hash of participant's IP address.
#     Col. 3: Controller name.
#     Col. 4: Item number.
#     Col. 5: Element number.
#     Col. 6: Type.
#     Col. 7: Group.
#     Col. 8: Question (NULL if none).
#     Col. 9: Answer.
#     Col. 10: Whether or not answer was correct (NULL if N/A).
#     Col. 11: Time taken to answer.
# Line 2:
#     Col. 1: Time results were received.
#     Col. 2: MD5 hash of participant's IP address.
#     Col. 3: Controller name.
#     Col. 4: Item number.
#     Col. 5: Element number.
#     Col. 6: Type.
#     Col. 7: Group.
#     Col. 8: Word number.
#     Col. 9: Word.
#     Col. 10: Reading time.
#     Col. 11: Newline?
#     Col. 12: Sentence (or sentence MD5).
1585838522,d24e9765e054743d1a4482fa973d6b9b,DashedAcceptabilityJudgment,247,0,filler,178,Kaptan geminin yükünü arttırdı.,Hayır (P'ye basınız),NULL,2321
1585838522,d24e9765e054743d1a4482fa973d6b9b,DashedAcceptabilityJudgment,79,0,expSA_b,30,1,Denizci,311,False,Denizci ve balıkçıya inanan kaptan birbirlerinden rotayı öğrendi.
# Columns below this comment are as follows:
# 1. Time results were received.
# 2. MD5 hash of participant's IP address.
# 3. Controller name.
# 4. Item number.
# 5. Element number.
# 6. Type.
# 7. Group.
# 8. Word number.
# 9. Word.
# 10. Reading time.
# 11. Newline?
# 12. Sentence (or sentence MD5).
1585838522,d24e9765e054743d1a4482fa973d6b9b,DashedAcceptabilityJudgment,79,0,expSA_b,30,2,ve,276,False,Denizci ve balıkçıya inanan kaptan birbirlerinden rotayı öğrendi.
1585838522,d24e9765e054743d1a4482fa973d6b9b,DashedAcceptabilityJudgment,79,0,expSA_b,30,3,balıkçıya,284,False,Denizci ve balıkçıya inanan kaptan birbirlerinden rotayı öğrendi.
1585838522,d24e9765e054743d1a4482fa973d6b9b,DashedAcceptabilityJudgment,79,0,expSA_b,30,4,inanan,301,False,Denizci ve balıkçıya inanan kaptan birbirlerinden rotayı öğrendi.
1585838522,d24e9765e054743d1a4482fa973d6b9b,DashedAcceptabilityJudgment,79,0,expSA_b,30,5,kaptan,292,False,Denizci ve balıkçıya inanan kaptan birbirlerinden rotayı öğrendi.
1585838522,d24e9765e054743d1a4482fa973d6b9b,DashedAcceptabilityJudgment,79,0,expSA_b,30,6,birbirlerinden,322,False,Denizci ve balıkçıya inanan kaptan birbirlerinden rotayı öğrendi.
1585838522,d24e9765e054743d1a4482fa973d6b9b,DashedAcceptabilityJudgment,79,0,expSA_b,30,7,rotayı,330,False,Denizci ve balıkçıya inanan kaptan birbirlerinden rotayı öğrendi.
1585838522,d24e9765e054743d1a4482fa973d6b9b,DashedAcceptabilityJudgment,79,0,expSA_b,30,8,öğrendi.,309,False,Denizci ve balıkçıya inanan kaptan birbirlerinden rotayı öğrendi.
# The lines below this comment are in groups of 2.
# The formats of the lines in each of these groups are as follows:
#
# Line 1:
#     Col. 1: Time results were received.
#     Col. 2: MD5 hash of participant's IP address.
#     Col. 3: Controller name.
#     Col. 4: Item number.
#     Col. 5: Element number.
#     Col. 6: Type.
#     Col. 7: Group.
#     Col. 8: Question (NULL if none).
#     Col. 9: Answer.
#     Col. 10: Whether or not answer was correct (NULL if N/A).
#     Col. 11: Time taken to answer.
# Line 2:
#     Col. 1: Time results were received.
#     Col. 2: MD5 hash of participant's IP address.
#     Col. 3: Controller name.
#     Col. 4: Item number.
#     Col. 5: Element number.
#     Col. 6: Type.
#     Col. 7: Group.
#     Col. 8: Word number.
#     Col. 9: Word.
#     Col. 10: Reading time.
#     Col. 11: Newline?
#     Col. 12: Sentence (or sentence MD5).
1585838522,d24e9765e054743d1a4482fa973d6b9b,DashedAcceptabilityJudgment,79,0,expSA_b,30,Kaptan denizciye inanmış.,Hayır (P'ye basınız),NULL,13908
1585838522,d24e9765e054743d1a4482fa973d6b9b,DashedAcceptabilityJudgment,212,0,filler,143,1,Ateşi,407,False,Ateşi yükselen bebeği hastaneye yetiştirmek için hemen arabaya koştuk.
# Columns below this comment are as follows:
# 1. Time results were received.
# 2. MD5 hash of participant's IP address.
# 3. Controller name.
# 4. Item number.
# 5. Element number.
# 6. Type.
# 7. Group.
# 8. Word number.
# 9. Word.
# 10. Reading time.
# 11. Newline?
# 12. Sentence (or sentence MD5).
1585838522,d24e9765e054743d1a4482fa973d6b9b,DashedAcceptabilityJudgment,212,0,filler,143,2,yükselen,284,False,Ateşi yükselen bebeği hastaneye yetiştirmek için hemen arabaya koştuk.
1585838522,d24e9765e054743d1a4482fa973d6b9b,DashedAcceptabilityJudgment,212,0,filler,143,3,bebeği,294,False,Ateşi yükselen bebeği hastaneye yetiştirmek için hemen arabaya koştuk.
1585838522,d24e9765e054743d1a4482fa973d6b9b,DashedAcceptabilityJudgment,212,0,filler,143,4,hastaneye,335,False,Ateşi yükselen bebeği hastaneye yetiştirmek için hemen arabaya koştuk.
1585838522,d24e9765e054743d1a4482fa973d6b9b,DashedAcceptabilityJudgment,212,0,filler,143,5,yetiştirmek,363,False,Ateşi yükselen bebeği hastaneye yetiştirmek için hemen arabaya koştuk.
1585838522,d24e9765e054743d1a4482fa973d6b9b,DashedAcceptabilityJudgment,212,0,filler,143,6,için,359,False,Ateşi yükselen bebeği hastaneye yetiştirmek için hemen arabaya koştuk.
1585838522,d24e9765e054743d1a4482fa973d6b9b,DashedAcceptabilityJudgment,212,0,filler,143,7,hemen,258,False,Ateşi yükselen bebeği hastaneye yetiştirmek için hemen arabaya koştuk.
1585838522,d24e9765e054743d1a4482fa973d6b9b,DashedAcceptabilityJudgment,212,0,filler,143,8,arabaya,355,False,Ateşi yükselen bebeği hastaneye yetiştirmek için hemen arabaya koştuk.
1585838522,d24e9765e054743d1a4482fa973d6b9b,DashedAcceptabilityJudgment,212,0,filler,143,9,koştuk.,327,False,Ateşi yükselen bebeği hastaneye yetiştirmek için hemen arabaya koştuk.
# The lines below this comment are in groups of 2.
# The formats of the lines in each of these groups are as follows:
#
# Line 1:
#     Col. 1: Time results were received.
#     Col. 2: MD5 hash of participant's IP address.
#     Col. 3: Controller name.
#     Col. 4: Item number.
#     Col. 5: Element number.
#     Col. 6: Type.
#     Col. 7: Group.
#     Col. 8: Question (NULL if none).
#     Col. 9: Answer.
#     Col. 10: Whether or not answer was correct (NULL if N/A).
#     Col. 11: Time taken to answer.
# Line 2:
#     Col. 1: Time results were received.
#     Col. 2: MD5 hash of participant's IP address.
#     Col. 3: Controller name.
#     Col. 4: Item number.
#     Col. 5: Element number.
#     Col. 6: Type.
#     Col. 7: Group.
#     Col. 8: Word number.
#     Col. 9: Word.
#     Col. 10: Reading time.
#     Col. 11: Newline?
#     Col. 12: Sentence (or sentence MD5).
1585838522,d24e9765e054743d1a4482fa973d6b9b,DashedAcceptabilityJudgment,212,0,filler,143,Bebeğin ateşi yükselmiş.,Evet (Q'ya basınız),NULL,2105
1585838522,d24e9765e054743d1a4482fa973d6b9b,DashedAcceptabilityJudgment,241,0,filler,172,1,Haftasonu,321,False,Haftasonu partiye gidecek öğrenciler yanlarında yiyecek ve içecek getirmeli.
# Columns below this comment are as follows:
# 1. Time results were received.
# 2. MD5 hash of participant's IP address.
# 3. Controller name.
# 4. Item number.
# 5. Element number.
# 6. Type.
# 7. Group.
# 8. Word number.
# 9. Word.
# 10. Reading time.
# 11. Newline?
# 12. Sentence (or sentence MD5).
1585838522,d24e9765e054743d1a4482fa973d6b9b,DashedAcceptabilityJudgment,241,0,filler,172,2,partiye,286,False,Haftasonu partiye gidecek öğrenciler yanlarında yiyecek ve içecek getirmeli.
1585838522,d24e9765e054743d1a4482fa973d6b9b,DashedAcceptabilityJudgment,241,0,filler,172,3,gidecek,293,False,Haftasonu partiye gidecek öğrenciler yanlarında yiyecek ve içecek getirmeli.
1585838522,d24e9765e054743d1a4482fa973d6b9b,DashedAcceptabilityJudgment,241,0,filler,172,4,öğrenciler,249,False,Haftasonu partiye gidecek öğrenciler yanlarında yiyecek ve içecek getirmeli.
1585838522,d24e9765e054743d1a4482fa973d6b9b,DashedAcceptabilityJudgment,241,0,filler,172,5,yanlarında,290,False,Haftasonu partiye gidecek öğrenciler yanlarında yiyecek ve içecek getirmeli.
1585838522,d24e9765e054743d1a4482fa973d6b9b,DashedAcceptabilityJudgment,241,0,filler,172,6,yiyecek,266,False,Haftasonu partiye gidecek öğrenciler yanlarında yiyecek ve içecek getirmeli.
1585838522,d24e9765e054743d1a4482fa973d6b9b,DashedAcceptabilityJudgment,241,0,filler,172,7,ve,795,False,Haftasonu partiye gidecek öğrenciler yanlarında yiyecek ve içecek getirmeli.
1585838522,d24e9765e054743d1a4482fa973d6b9b,DashedAcceptabilityJudgment,241,0,filler,172,8,içecek,332,False,Haftasonu partiye gidecek öğrenciler yanlarında yiyecek ve içecek getirmeli.
1585838522,d24e9765e054743d1a4482fa973d6b9b,DashedAcceptabilityJudgment,241,0,filler,172,9,getirmeli.,315,False,Haftasonu partiye gidecek öğrenciler yanlarında yiyecek ve içecek getirmeli.
# The lines below this comment are in groups of 2.
# The formats of the lines in each of these groups are as follows:
#
# Line 1:
#     Col. 1: Time results were received.
#     Col. 2: MD5 hash of participant's IP address.
#     Col. 3: Controller name.
#     Col. 4: Item number.
#     Col. 5: Element number.
#     Col. 6: Type.
#     Col. 7: Group.
#     Col. 8: Question (NULL if none).
#     Col. 9: Answer.
#     Col. 10: Whether or not answer was correct (NULL if N/A).
#     Col. 11: Time taken to answer.
# Line 2:
#     Col. 1: Time results were received.
#     Col. 2: MD5 hash of participant's IP address.
#     Col. 3: Controller name.
#     Col. 4: Item number.
#     Col. 5: Element number.
#     Col. 6: Type.
#     Col. 7: Group.
#     Col. 8: Word number.
#     Col. 9: Word.
#     Col. 10: Reading time.
#     Col. 11: Newline?
#     Col. 12: Sentence (or sentence MD5).
1585838522,d24e9765e054743d1a4482fa973d6b9b,DashedAcceptabilityJudgment,241,0,filler,172,Öğrenciler yiyecek getirmemeli.,Hayır (P'ye basınız),NULL,3799
1585838522,d24e9765e054743d1a4482fa973d6b9b,DashedAcceptabilityJudgment,96,0,expSA_c,7,1,Kuyumcu,541,False,Kuyumcu ve çaresiz dönerciyi dolandıran hırsız onları polise ihbar_etti.
# Columns below this comment are as follows:
# 1. Time results were received.
# 2. MD5 hash of participant's IP address.
# 3. Controller name.
# 4. Item number.
# 5. Element number.
# 6. Type.
# 7. Group.
# 8. Word number.
# 9. Word.
# 10. Reading time.
# 11. Newline?
# 12. Sentence (or sentence MD5).
1585838522,d24e9765e054743d1a4482fa973d6b9b,DashedAcceptabilityJudgment,96,0,expSA_c,7,2,ve,301,False,Kuyumcu ve çaresiz dönerciyi dolandıran hırsız onları polise ihbar_etti.
1585838522,d24e9765e054743d1a4482fa973d6b9b,DashedAcceptabilityJudgment,96,0,expSA_c,7,3,çaresiz,278,False,Kuyumcu ve çaresiz dönerciyi dolandıran hırsız onları polise ihbar_etti.
1585838522,d24e9765e054743d1a4482fa973d6b9b,DashedAcceptabilityJudgment,96,0,expSA_c,7,4,dönerciyi,286,False,Kuyumcu ve çaresiz dönerciyi dolandıran hırsız onları polise ihbar_etti.
1585838522,d24e9765e054743d1a4482fa973d6b9b,DashedAcceptabilityJudgment,96,0,expSA_c,7,5,dolandıran,282,False,Kuyumcu ve çaresiz dönerciyi dolandıran hırsız onları polise ihbar_etti.
1585838522,d24e9765e054743d1a4482fa973d6b9b,DashedAcceptabilityJudgment,96,0,expSA_c,7,6,hırsız,296,False,Kuyumcu ve çaresiz dönerciyi dolandıran hırsız onları polise ihbar_etti.
1585838522,d24e9765e054743d1a4482fa973d6b9b,DashedAcceptabilityJudgment,96,0,expSA_c,7,7,onları,310,False,Kuyumcu ve çaresiz dönerciyi dolandıran hırsız onları polise ihbar_etti.
1585838522,d24e9765e054743d1a4482fa973d6b9b,DashedAcceptabilityJudgment,96,0,expSA_c,7,8,polise,609,False,Kuyumcu ve çaresiz dönerciyi dolandıran hırsız onları polise ihbar_etti.
1585838522,d24e9765e054743d1a4482fa973d6b9b,DashedAcceptabilityJudgment,96,0,expSA_c,7,9,ihbar etti.,400,False,Kuyumcu ve çaresiz dönerciyi dolandıran hırsız onları polise ihbar_etti.
# The lines below this comment are in groups of 2.
# The formats of the lines in each of these groups are as follows:
#
# Line 1:
#     Col. 1: Time results were received.
#     Col. 2: MD5 hash of participant's IP address.
#     Col. 3: Controller name.
#     Col. 4: Item number.
#     Col. 5: Element number.
#     Col. 6: Type.
#     Col. 7: Group.
#     Col. 8: Question (NULL if none).
#     Col. 9: Answer.
#     Col. 10: Whether or not answer was correct (NULL if N/A).
#     Col. 11: Time taken to answer.
# Line 2:
#     Col. 1: Time results were received.
#     Col. 2: MD5 hash of participant's IP address.
#     Col. 3: Controller name.
#     Col. 4: Item number.
#     Col. 5: Element number.
#     Col. 6: Type.
#     Col. 7: Group.
#     Col. 8: Word number.
#     Col. 9: Word.
#     Col. 10: Reading time.
#     Col. 11: Newline?
#     Col. 12: Sentence (or sentence MD5).
1585838522,d24e9765e054743d1a4482fa973d6b9b,DashedAcceptabilityJudgment,96,0,expSA_c,7,Kuyumcu hırsızı ihbar etti.,Hayır (P'ye basınız),NULL,10328
1585838522,d24e9765e054743d1a4482fa973d6b9b,DashedAcceptabilityJudgment,239,0,filler,170,1,Burada,345,False,Burada yaşayan köylüler kahveyi kavurduktan sonra elleriyle saatlerce dövüyorlar.
# Columns below this comment are as follows:
# 1. Time results were received.
# 2. MD5 hash of participant's IP address.
# 3. Controller name.
# 4. Item number.
# 5. Element number.
# 6. Type.
# 7. Group.
# 8. Word number.
# 9. Word.
# 10. Reading time.
# 11. Newline?
# 12. Sentence (or sentence MD5).
1585838522,d24e9765e054743d1a4482fa973d6b9b,DashedAcceptabilityJudgment,239,0,filler,170,2,yaşayan,274,False,Burada yaşayan köylüler kahveyi kavurduktan sonra elleriyle saatlerce dövüyorlar.
1585838522,d24e9765e054743d1a4482fa973d6b9b,DashedAcceptabilityJudgment,239,0,filler,170,3,köylüler,253,False,Burada yaşayan köylüler kahveyi kavurduktan sonra elleriyle saatlerce dövüyorlar.
1585838522,d24e9765e054743d1a4482fa973d6b9b,DashedAcceptabilityJudgment,239,0,filler,170,4,kahveyi,288,False,Burada yaşayan köylüler kahveyi kavurduktan sonra elleriyle saatlerce dövüyorlar.
1585838522,d24e9765e054743d1a4482fa973d6b9b,DashedAcceptabilityJudgment,239,0,filler,170,5,kavurduktan,276,False,Burada yaşayan köylüler kahveyi kavurduktan sonra elleriyle saatlerce dövüyorlar.
1585838522,d24e9765e054743d1a4482fa973d6b9b,DashedAcceptabilityJudgment,239,0,filler,170,6,sonra,310,False,Burada yaşayan köylüler kahveyi kavurduktan sonra elleriyle saatlerce dövüyorlar.
1585838522,d24e9765e054743d1a4482fa973d6b9b,DashedAcceptabilityJudgment,239,0,filler,170,7,elleriyle,295,False,Burada yaşayan köylüler kahveyi kavurduktan sonra elleriyle saatlerce dövüyorlar.
1585838522,d24e9765e054743d1a4482fa973d6b9b,DashedAcceptabilityJudgment,239,0,filler,170,8,saatlerce,315,False,Burada yaşayan köylüler kahveyi kavurduktan sonra elleriyle saatlerce dövüyorlar.
1585838522,d24e9765e054743d1a4482fa973d6b9b,DashedAcceptabilityJudgment,239,0,filler,170,9,dövüyorlar.,302,False,Burada yaşayan köylüler kahveyi kavurduktan sonra elleriyle saatlerce dövüyorlar.
# The lines below this comment are in groups of 2.
# The formats of the lines in each of these groups are as follows:
#
# Line 1:
#     Col. 1: Time results were received.
#     Col. 2: MD5 hash of participant's IP address.
#     Col. 3: Controller name.
#     Col. 4: Item number.
#     Col. 5: Element number.
#     Col. 6: Type.
#     Col. 7: Group.
#     Col. 8: Question (NULL if none).
#     Col. 9: Answer.
#     Col. 10: Whether or not answer was correct (NULL if N/A).
#     Col. 11: Time taken to answer.
# Line 2:
#     Col. 1: Time results were received.
#     Col. 2: MD5 hash of participant's IP address.
#     Col. 3: Controller name.
#     Col. 4: Item number.
#     Col. 5: Element number.
#     Col. 6: Type.
#     Col. 7: Group.
#     Col. 8: Word number.
#     Col. 9: Word.
#     Col. 10: Reading time.
#     Col. 11: Newline?
#     Col. 12: Sentence (or sentence MD5).
1585838522,d24e9765e054743d1a4482fa973d6b9b,DashedAcceptabilityJudgment,239,0,filler,170,Köylüler kahveyi kavurmuyor.,Hayır (P'ye basınız),NULL,4561
1585838522,d24e9765e054743d1a4482fa973d6b9b,DashedAcceptabilityJudgment,211,0,filler,142,1,Karpuzu,314,False,Karpuzu tamamen püre haline getirdikten sonra yavaşça karışıma eklemelisin.
# Columns below this comment are as follows:
# 1. Time results were received.
# 2. MD5 hash of participant's IP address.
# 3. Controller name.
# 4. Item number.
# 5. Element number.
# 6. Type.
# 7. Group.
# 8. Word number.
# 9. Word.
# 10. Reading time.
# 11. Newline?
# 12. Sentence (or sentence MD5).
1585838522,d24e9765e054743d1a4482fa973d6b9b,DashedAcceptabilityJudgment,211,0,filler,142,2,tamamen,285,False,Karpuzu tamamen püre haline getirdikten sonra yavaşça karışıma eklemelisin.
1585838522,d24e9765e054743d1a4482fa973d6b9b,DashedAcceptabilityJudgment,211,0,filler,142,3,püre,315,False,Karpuzu tamamen püre haline getirdikten sonra yavaşça karışıma eklemelisin.
1585838522,d24e9765e054743d1a4482fa973d6b9b,DashedAcceptabilityJudgment,211,0,filler,142,4,haline,289,False,Karpuzu tamamen püre haline getirdikten sonra yavaşça karışıma eklemelisin.
1585838522,d24e9765e054743d1a4482fa973d6b9b,DashedAcceptabilityJudgment,211,0,filler,142,5,getirdikten,289,False,Karpuzu tamamen püre haline getirdikten sonra yavaşça karışıma eklemelisin.
1585838522,d24e9765e054743d1a4482fa973d6b9b,DashedAcceptabilityJudgment,211,0,filler,142,6,sonra,289,False,Karpuzu tamamen püre haline getirdikten sonra yavaşça karışıma eklemelisin.
1585838522,d24e9765e054743d1a4482fa973d6b9b,DashedAcceptabilityJudgment,211,0,filler,142,7,yavaşça,262,False,Karpuzu tamamen püre haline getirdikten sonra yavaşça karışıma eklemelisin.
1585838522,d24e9765e054743d1a4482fa973d6b9b,DashedAcceptabilityJudgment,211,0,filler,142,8,karışıma,330,False,Karpuzu tamamen püre haline getirdikten sonra yavaşça karışıma eklemelisin.
1585838522,d24e9765e054743d1a4482fa973d6b9b,DashedAcceptabilityJudgment,211,0,filler,142,9,eklemelisin.,291,False,Karpuzu tamamen püre haline getirdikten sonra yavaşça karışıma eklemelisin.
# The lines below this comment are in groups of 2.
# The formats of the lines in each of these groups are as follows:
#
# Line 1:
#     Col. 1: Time results were received.
#     Col. 2: MD5 hash of participant's IP address.
#     Col. 3: Controller name.
#     Col. 4: Item number.
#     Col. 5: Element number.
#     Col. 6: Type.
#     Col. 7: Group.
#     Col. 8: Question (NULL if none).
#     Col. 9: Answer.
#     Col. 10: Whether or not answer was correct (NULL if N/A).
#     Col. 11: Time taken to answer.
# Line 2:
#     Col. 1: Time results were received.
#     Col. 2: MD5 hash of participant's IP address.
#     Col. 3: Controller name.
#     Col. 4: Item number.
#     Col. 5: Element number.
#     Col. 6: Type.
#     Col. 7: Group.
#     Col. 8: Word number.
#     Col. 9: Word.
#     Col. 10: Reading time.
#     Col. 11: Newline?
#     Col. 12: Sentence (or sentence MD5).
1585838522,d24e9765e054743d1a4482fa973d6b9b,DashedAcceptabilityJudgment,211,0,filler,142,Karpuzu püre halinde eklenmeli.,Evet (Q'ya basınız),NULL,28760
1585838522,d24e9765e054743d1a4482fa973d6b9b,DashedAcceptabilityJudgment,128,0,expSA_c,39,1,Papaz,358,False,Papaz ve bilgili rahibeden uzaklaşan filozof onları tartışmaya zorladı.
# Columns below this comment are as follows:
# 1. Time results were received.
# 2. MD5 hash of participant's IP address.
# 3. Controller name.
# 4. Item number.
# 5. Element number.
# 6. Type.
# 7. Group.
# 8. Word number.
# 9. Word.
# 10. Reading time.
# 11. Newline?
# 12. Sentence (or sentence MD5).
1585838522,d24e9765e054743d1a4482fa973d6b9b,DashedAcceptabilityJudgment,128,0,expSA_c,39,2,ve,411,False,Papaz ve bilgili rahibeden uzaklaşan filozof onları tartışmaya zorladı.
1585838522,d24e9765e054743d1a4482fa973d6b9b,DashedAcceptabilityJudgment,128,0,expSA_c,39,3,bilgili,1180,False,Papaz ve bilgili rahibeden uzaklaşan filozof onları tartışmaya zorladı.
1585838522,d24e9765e054743d1a4482fa973d6b9b,DashedAcceptabilityJudgment,128,0,expSA_c,39,4,rahibeden,346,False,Papaz ve bilgili rahibeden uzaklaşan filozof onları tartışmaya zorladı.
1585838522,d24e9765e054743d1a4482fa973d6b9b,DashedAcceptabilityJudgment,128,0,expSA_c,39,5,uzaklaşan,471,False,Papaz ve bilgili rahibeden uzaklaşan filozof onları tartışmaya zorladı.
1585838522,d24e9765e054743d1a4482fa973d6b9b,DashedAcceptabilityJudgment,128,0,expSA_c,39,6,filozof,578,False,Papaz ve bilgili rahibeden uzaklaşan filozof onları tartışmaya zorladı.
1585838522,d24e9765e054743d1a4482fa973d6b9b,DashedAcceptabilityJudgment,128,0,expSA_c,39,7,onları,550,False,Papaz ve bilgili rahibeden uzaklaşan filozof onları tartışmaya zorladı.
1585838522,d24e9765e054743d1a4482fa973d6b9b,DashedAcceptabilityJudgment,128,0,expSA_c,39,8,tartışmaya,477,False,Papaz ve bilgili rahibeden uzaklaşan filozof onları tartışmaya zorladı.
1585838522,d24e9765e054743d1a4482fa973d6b9b,DashedAcceptabilityJudgment,128,0,expSA_c,39,9,zorladı.,1125,False,Papaz ve bilgili rahibeden uzaklaşan filozof onları tartışmaya zorladı.
# The lines below this comment are in groups of 2.
# The formats of the lines in each of these groups are as follows:
#
# Line 1:
#     Col. 1: Time results were received.
#     Col. 2: MD5 hash of participant's IP address.
#     Col. 3: Controller name.
#     Col. 4: Item number.
#     Col. 5: Element number.
#     Col. 6: Type.
#     Col. 7: Group.
#     Col. 8: Question (NULL if none).
#     Col. 9: Answer.
#     Col. 10: Whether or not answer was correct (NULL if N/A).
#     Col. 11: Time taken to answer.
# Line 2:
#     Col. 1: Time results were received.
#     Col. 2: MD5 hash of participant's IP address.
#     Col. 3: Controller name.
#     Col. 4: Item number.
#     Col. 5: Element number.
#     Col. 6: Type.
#     Col. 7: Group.
#     Col. 8: Word number.
#     Col. 9: Word.
#     Col. 10: Reading time.
#     Col. 11: Newline?
#     Col. 12: Sentence (or sentence MD5).
1585838522,d24e9765e054743d1a4482fa973d6b9b,DashedAcceptabilityJudgment,128,0,expSA_c,39,Filozof papazdan uzaklaşmış.,Evet (Q'ya basınız),NULL,8064
1585838522,d24e9765e054743d1a4482fa973d6b9b,DashedAcceptabilityJudgment,222,0,filler,153,1,Kelebeğin,492,False,Kelebeğin türünü üstündeki şekiller veya kanadının şeklinden anlamaya çalışabiliriz.
# Columns below this comment are as follows:
# 1. Time results were received.
# 2. MD5 hash of participant's IP address.
# 3. Controller name.
# 4. Item number.
# 5. Element number.
# 6. Type.
# 7. Group.
# 8. Word number.
# 9. Word.
# 10. Reading time.
# 11. Newline?
# 12. Sentence (or sentence MD5).
1585838522,d24e9765e054743d1a4482fa973d6b9b,DashedAcceptabilityJudgment,222,0,filler,153,2,türünü,322,False,Kelebeğin türünü üstündeki şekiller veya kanadının şeklinden anlamaya çalışabiliriz.
1585838522,d24e9765e054743d1a4482fa973d6b9b,DashedAcceptabilityJudgment,222,0,filler,153,3,üstündeki,391,False,Kelebeğin türünü üstündeki şekiller veya kanadının şeklinden anlamaya çalışabiliriz.
1585838522,d24e9765e054743d1a4482fa973d6b9b,DashedAcceptabilityJudgment,222,0,filler,153,4,şekiller,366,False,Kelebeğin türünü üstündeki şekiller veya kanadının şeklinden anlamaya çalışabiliriz.
1585838522,d24e9765e054743d1a4482fa973d6b9b,DashedAcceptabilityJudgment,222,0,filler,153,5,veya,258,False,Kelebeğin türünü üstündeki şekiller veya kanadının şeklinden anlamaya çalışabiliriz.
1585838522,d24e9765e054743d1a4482fa973d6b9b,DashedAcceptabilityJudgment,222,0,filler,153,6,kanadının,329,False,Kelebeğin türünü üstündeki şekiller veya kanadının şeklinden anlamaya çalışabiliriz.
1585838522,d24e9765e054743d1a4482fa973d6b9b,DashedAcceptabilityJudgment,222,0,filler,153,7,şeklinden,271,False,Kelebeğin türünü üstündeki şekiller veya kanadının şeklinden anlamaya çalışabiliriz.
1585838522,d24e9765e054743d1a4482fa973d6b9b,DashedAcceptabilityJudgment,222,0,filler,153,8,anlamaya,573,False,Kelebeğin türünü üstündeki şekiller veya kanadının şeklinden anlamaya çalışabiliriz.
1585838522,d24e9765e054743d1a4482fa973d6b9b,DashedAcceptabilityJudgment,222,0,filler,153,9,çalışabiliriz.,279,False,Kelebeğin türünü üstündeki şekiller veya kanadının şeklinden anlamaya çalışabiliriz.
# The lines below this comment are in groups of 2.
# The formats of the lines in each of these groups are as follows:
#
# Line 1:
#     Col. 1: Time results were received.
#     Col. 2: MD5 hash of participant's IP address.
#     Col. 3: Controller name.
#     Col. 4: Item number.
#     Col. 5: Element number.
#     Col. 6: Type.
#     Col. 7: Group.
#     Col. 8: Question (NULL if none).
#     Col. 9: Answer.
#     Col. 10: Whether or not answer was correct (NULL if N/A).
#     Col. 11: Time taken to answer.
# Line 2:
#     Col. 1: Time results were received.
#     Col. 2: MD5 hash of participant's IP address.
#     Col. 3: Controller name.
#     Col. 4: Item number.
#     Col. 5: Element number.
#     Col. 6: Type.
#     Col. 7: Group.
#     Col. 8: Word number.
#     Col. 9: Word.
#     Col. 10: Reading time.
#     Col. 11: Newline?
#     Col. 12: Sentence (or sentence MD5).
1585838522,d24e9765e054743d1a4482fa973d6b9b,DashedAcceptabilityJudgment,222,0,filler,153,Kelebeğin kanatlarında şekil varmış.,Evet (Q'ya basınız),NULL,1732
1585838522,d24e9765e054743d1a4482fa973d6b9b,DashedAcceptabilityJudgment,185,0,filler,116,1,Masasında,351,False,Masasında veya arabasında dağınık bir kağıt parçası bulunamadı.
# Columns below this comment are as follows:
# 1. Time results were received.
# 2. MD5 hash of participant's IP address.
# 3. Controller name.
# 4. Item number.
# 5. Element number.
# 6. Type.
# 7. Group.
# 8. Word number.
# 9. Word.
# 10. Reading time.
# 11. Newline?
# 12. Sentence (or sentence MD5).
1585838522,d24e9765e054743d1a4482fa973d6b9b,DashedAcceptabilityJudgment,185,0,filler,116,2,veya,275,False,Masasında veya arabasında dağınık bir kağıt parçası bulunamadı.
1585838522,d24e9765e054743d1a4482fa973d6b9b,DashedAcceptabilityJudgment,185,0,filler,116,3,arabasında,352,False,Masasında veya arabasında dağınık bir kağıt parçası bulunamadı.
1585838522,d24e9765e054743d1a4482fa973d6b9b,DashedAcceptabilityJudgment,185,0,filler,116,4,dağınık,614,False,Masasında veya arabasında dağınık bir kağıt parçası bulunamadı.
1585838522,d24e9765e054743d1a4482fa973d6b9b,DashedAcceptabilityJudgment,185,0,filler,116,5,bir,437,False,Masasında veya arabasında dağınık bir kağıt parçası bulunamadı.
1585838522,d24e9765e054743d1a4482fa973d6b9b,DashedAcceptabilityJudgment,185,0,filler,116,6,kağıt,328,False,Masasında veya arabasında dağınık bir kağıt parçası bulunamadı.
1585838522,d24e9765e054743d1a4482fa973d6b9b,DashedAcceptabilityJudgment,185,0,filler,116,7,parçası,344,False,Masasında veya arabasında dağınık bir kağıt parçası bulunamadı.
1585838522,d24e9765e054743d1a4482fa973d6b9b,DashedAcceptabilityJudgment,185,0,filler,116,8,bulunamadı.,404,False,Masasında veya arabasında dağınık bir kağıt parçası bulunamadı.
# The lines below this comment are in groups of 2.
# The formats of the lines in each of these groups are as follows:
#
# Line 1:
#     Col. 1: Time results were received.
#     Col. 2: MD5 hash of participant's IP address.
#     Col. 3: Controller name.
#     Col. 4: Item number.
#     Col. 5: Element number.
#     Col. 6: Type.
#     Col. 7: Group.
#     Col. 8: Question (NULL if none).
#     Col. 9: Answer.
#     Col. 10: Whether or not answer was correct (NULL if N/A).
#     Col. 11: Time taken to answer.
# Line 2:
#     Col. 1: Time results were received.
#     Col. 2: MD5 hash of participant's IP address.
#     Col. 3: Controller name.
#     Col. 4: Item number.
#     Col. 5: Element number.
#     Col. 6: Type.
#     Col. 7: Group.
#     Col. 8: Word number.
#     Col. 9: Word.
#     Col. 10: Reading time.
#     Col. 11: Newline?
#     Col. 12: Sentence (or sentence MD5).
1585838522,d24e9765e054743d1a4482fa973d6b9b,DashedAcceptabilityJudgment,185,0,filler,116,Kağıt parçası bulunamadı.,Hayır (P'ye basınız),NULL,4425
1585838522,d24e9765e054743d1a4482fa973d6b9b,DashedAcceptabilityJudgment,18,0,expSA_a,9,1,Yazar,551,False,Yazar ve editörü arayan şair onlara sokakta sesleniyor.
# Columns below this comment are as follows:
# 1. Time results were received.
# 2. MD5 hash of participant's IP address.
# 3. Controller name.
# 4. Item number.
# 5. Element number.
# 6. Type.
# 7. Group.
# 8. Word number.
# 9. Word.
# 10. Reading time.
# 11. Newline?
# 12. Sentence (or sentence MD5).
1585838522,d24e9765e054743d1a4482fa973d6b9b,DashedAcceptabilityJudgment,18,0,expSA_a,9,2,ve,437,False,Yazar ve editörü arayan şair onlara sokakta sesleniyor.
1585838522,d24e9765e054743d1a4482fa973d6b9b,DashedAcceptabilityJudgment,18,0,expSA_a,9,3,editörü,302,False,Yazar ve editörü arayan şair onlara sokakta sesleniyor.
1585838522,d24e9765e054743d1a4482fa973d6b9b,DashedAcceptabilityJudgment,18,0,expSA_a,9,4,arayan,379,False,Yazar ve editörü arayan şair onlara sokakta sesleniyor.
1585838522,d24e9765e054743d1a4482fa973d6b9b,DashedAcceptabilityJudgment,18,0,expSA_a,9,5,şair,567,False,Yazar ve editörü arayan şair onlara sokakta sesleniyor.
1585838522,d24e9765e054743d1a4482fa973d6b9b,DashedAcceptabilityJudgment,18,0,expSA_a,9,6,onlara,504,False,Yazar ve editörü arayan şair onlara sokakta sesleniyor.
1585838522,d24e9765e054743d1a4482fa973d6b9b,DashedAcceptabilityJudgment,18,0,expSA_a,9,7,sokakta,741,False,Yazar ve editörü arayan şair onlara sokakta sesleniyor.
1585838522,d24e9765e054743d1a4482fa973d6b9b,DashedAcceptabilityJudgment,18,0,expSA_a,9,8,sesleniyor.,972,False,Yazar ve editörü arayan şair onlara sokakta sesleniyor.
# The lines below this comment are in groups of 2.
# The formats of the lines in each of these groups are as follows:
#
# Line 1:
#     Col. 1: Time results were received.
#     Col. 2: MD5 hash of participant's IP address.
#     Col. 3: Controller name.
#     Col. 4: Item number.
#     Col. 5: Element number.
#     Col. 6: Type.
#     Col. 7: Group.
#     Col. 8: Question (NULL if none).
#     Col. 9: Answer.
#     Col. 10: Whether or not answer was correct (NULL if N/A).
#     Col. 11: Time taken to answer.
# Line 2:
#     Col. 1: Time results were received.
#     Col. 2: MD5 hash of participant's IP address.
#     Col. 3: Controller name.
#     Col. 4: Item number.
#     Col. 5: Element number.
#     Col. 6: Type.
#     Col. 7: Group.
#     Col. 8: Word number.
#     Col. 9: Word.
#     Col. 10: Reading time.
#     Col. 11: Newline?
#     Col. 12: Sentence (or sentence MD5).
1585838522,d24e9765e054743d1a4482fa973d6b9b,DashedAcceptabilityJudgment,18,0,expSA_a,9,Yazar şaire sesleniyor.,Hayır (P'ye basınız),NULL,4941
1585838522,d24e9765e054743d1a4482fa973d6b9b,DashedAcceptabilityJudgment,179,0,filler,110,1,Feci,417,False,Feci kazada ve sonrasında yaralanan olmaması insanları rahatlattı.
# Columns below this comment are as follows:
# 1. Time results were received.
# 2. MD5 hash of participant's IP address.
# 3. Controller name.
# 4. Item number.
# 5. Element number.
# 6. Type.
# 7. Group.
# 8. Word number.
# 9. Word.
# 10. Reading time.
# 11. Newline?
# 12. Sentence (or sentence MD5).
1585838522,d24e9765e054743d1a4482fa973d6b9b,DashedAcceptabilityJudgment,179,0,filler,110,2,kazada,304,False,Feci kazada ve sonrasında yaralanan olmaması insanları rahatlattı.
1585838522,d24e9765e054743d1a4482fa973d6b9b,DashedAcceptabilityJudgment,179,0,filler,110,3,ve,299,False,Feci kazada ve sonrasında yaralanan olmaması insanları rahatlattı.
1585838522,d24e9765e054743d1a4482fa973d6b9b,DashedAcceptabilityJudgment,179,0,filler,110,4,sonrasında,262,False,Feci kazada ve sonrasında yaralanan olmaması insanları rahatlattı.
1585838522,d24e9765e054743d1a4482fa973d6b9b,DashedAcceptabilityJudgment,179,0,filler,110,5,yaralanan,325,False,Feci kazada ve sonrasında yaralanan olmaması insanları rahatlattı.
1585838522,d24e9765e054743d1a4482fa973d6b9b,DashedAcceptabilityJudgment,179,0,filler,110,6,olmaması,302,False,Feci kazada ve sonrasında yaralanan olmaması insanları rahatlattı.
1585838522,d24e9765e054743d1a4482fa973d6b9b,DashedAcceptabilityJudgment,179,0,filler,110,7,insanları,562,False,Feci kazada ve sonrasında yaralanan olmaması insanları rahatlattı.
1585838522,d24e9765e054743d1a4482fa973d6b9b,DashedAcceptabilityJudgment,179,0,filler,110,8,rahatlattı.,391,False,Feci kazada ve sonrasında yaralanan olmaması insanları rahatlattı.
# The lines below this comment are in groups of 2.
# The formats of the lines in each of these groups are as follows:
#
# Line 1:
#     Col. 1: Time results were received.
#     Col. 2: MD5 hash of participant's IP address.
#     Col. 3: Controller name.
#     Col. 4: Item number.
#     Col. 5: Element number.
#     Col. 6: Type.
#     Col. 7: Group.
#     Col. 8: Question (NULL if none).
#     Col. 9: Answer.
#     Col. 10: Whether or not answer was correct (NULL if N/A).
#     Col. 11: Time taken to answer.
# Line 2:
#     Col. 1: Time results were received.
#     Col. 2: MD5 hash of participant's IP address.
#     Col. 3: Controller name.
#     Col. 4: Item number.
#     Col. 5: Element number.
#     Col. 6: Type.
#     Col. 7: Group.
#     Col. 8: Word number.
#     Col. 9: Word.
#     Col. 10: Reading time.
#     Col. 11: Newline?
#     Col. 12: Sentence (or sentence MD5).
1585838522,d24e9765e054743d1a4482fa973d6b9b,DashedAcceptabilityJudgment,179,0,filler,110,Yaralı olmaması insanları rahatlattı.,Evet (Q'ya basınız),NULL,5089
1585838522,d24e9765e054743d1a4482fa973d6b9b,DashedAcceptabilityJudgment,229,0,filler,160,1,Sekreterin,292,False,Sekreterin kaybettiği dosyaları tek başına arayan profesör çok sinirlendi.
# Columns below this comment are as follows:
# 1. Time results were received.
# 2. MD5 hash of participant's IP address.
# 3. Controller name.
# 4. Item number.
# 5. Element number.
# 6. Type.
# 7. Group.
# 8. Word number.
# 9. Word.
# 10. Reading time.
# 11. Newline?
# 12. Sentence (or sentence MD5).
1585838522,d24e9765e054743d1a4482fa973d6b9b,DashedAcceptabilityJudgment,229,0,filler,160,2,kaybettiği,266,False,Sekreterin kaybettiği dosyaları tek başına arayan profesör çok sinirlendi.
1585838522,d24e9765e054743d1a4482fa973d6b9b,DashedAcceptabilityJudgment,229,0,filler,160,3,dosyaları,387,False,Sekreterin kaybettiği dosyaları tek başına arayan profesör çok sinirlendi.
1585838522,d24e9765e054743d1a4482fa973d6b9b,DashedAcceptabilityJudgment,229,0,filler,160,4,tek,483,False,Sekreterin kaybettiği dosyaları tek başına arayan profesör çok sinirlendi.
1585838522,d24e9765e054743d1a4482fa973d6b9b,DashedAcceptabilityJudgment,229,0,filler,160,5,başına,285,False,Sekreterin kaybettiği dosyaları tek başına arayan profesör çok sinirlendi.
1585838522,d24e9765e054743d1a4482fa973d6b9b,DashedAcceptabilityJudgment,229,0,filler,160,6,arayan,528,False,Sekreterin kaybettiği dosyaları tek başına arayan profesör çok sinirlendi.
1585838522,d24e9765e054743d1a4482fa973d6b9b,DashedAcceptabilityJudgment,229,0,filler,160,7,profesör,403,False,Sekreterin kaybettiği dosyaları tek başına arayan profesör çok sinirlendi.
1585838522,d24e9765e054743d1a4482fa973d6b9b,DashedAcceptabilityJudgment,229,0,filler,160,8,çok,546,False,Sekreterin kaybettiği dosyaları tek başına arayan profesör çok sinirlendi.
1585838522,d24e9765e054743d1a4482fa973d6b9b,DashedAcceptabilityJudgment,229,0,filler,160,9,sinirlendi.,524,False,Sekreterin kaybettiği dosyaları tek başına arayan profesör çok sinirlendi.
# The lines below this comment are in groups of 2.
# The formats of the lines in each of these groups are as follows:
#
# Line 1:
#     Col. 1: Time results were received.
#     Col. 2: MD5 hash of participant's IP address.
#     Col. 3: Controller name.
#     Col. 4: Item number.
#     Col. 5: Element number.
#     Col. 6: Type.
#     Col. 7: Group.
#     Col. 8: Question (NULL if none).
#     Col. 9: Answer.
#     Col. 10: Whether or not answer was correct (NULL if N/A).
#     Col. 11: Time taken to answer.
# Line 2:
#     Col. 1: Time results were received.
#     Col. 2: MD5 hash of participant's IP address.
#     Col. 3: Controller name.
#     Col. 4: Item number.
#     Col. 5: Element number.
#     Col. 6: Type.
#     Col. 7: Group.
#     Col. 8: Word number.
#     Col. 9: Word.
#     Col. 10: Reading time.
#     Col. 11: Newline?
#     Col. 12: Sentence (or sentence MD5).
1585838522,d24e9765e054743d1a4482fa973d6b9b,DashedAcceptabilityJudgment,229,0,filler,160,Sekreter dosyaları kaybetmiş.,Evet (Q'ya basınız),NULL,2693
1585838522,d24e9765e054743d1a4482fa973d6b9b,DashedAcceptabilityJudgment,108,0,expSA_c,19,1,Müzisyen,396,False,Müzisyen ve alımlı modele yaklaşan aktör onlara duyuruyu okuyacak.
# Columns below this comment are as follows:
# 1. Time results were received.
# 2. MD5 hash of participant's IP address.
# 3. Controller name.
# 4. Item number.
# 5. Element number.
# 6. Type.
# 7. Group.
# 8. Word number.
# 9. Word.
# 10. Reading time.
# 11. Newline?
# 12. Sentence (or sentence MD5).
1585838522,d24e9765e054743d1a4482fa973d6b9b,DashedAcceptabilityJudgment,108,0,expSA_c,19,2,ve,238,False,Müzisyen ve alımlı modele yaklaşan aktör onlara duyuruyu okuyacak.
1585838522,d24e9765e054743d1a4482fa973d6b9b,DashedAcceptabilityJudgment,108,0,expSA_c,19,3,alımlı,278,False,Müzisyen ve alımlı modele yaklaşan aktör onlara duyuruyu okuyacak.
1585838522,d24e9765e054743d1a4482fa973d6b9b,DashedAcceptabilityJudgment,108,0,expSA_c,19,4,modele,266,False,Müzisyen ve alımlı modele yaklaşan aktör onlara duyuruyu okuyacak.
1585838522,d24e9765e054743d1a4482fa973d6b9b,DashedAcceptabilityJudgment,108,0,expSA_c,19,5,yaklaşan,278,False,Müzisyen ve alımlı modele yaklaşan aktör onlara duyuruyu okuyacak.
1585838522,d24e9765e054743d1a4482fa973d6b9b,DashedAcceptabilityJudgment,108,0,expSA_c,19,6,aktör,315,False,Müzisyen ve alımlı modele yaklaşan aktör onlara duyuruyu okuyacak.
1585838522,d24e9765e054743d1a4482fa973d6b9b,DashedAcceptabilityJudgment,108,0,expSA_c,19,7,onlara,378,False,Müzisyen ve alımlı modele yaklaşan aktör onlara duyuruyu okuyacak.
1585838522,d24e9765e054743d1a4482fa973d6b9b,DashedAcceptabilityJudgment,108,0,expSA_c,19,8,duyuruyu,676,False,Müzisyen ve alımlı modele yaklaşan aktör onlara duyuruyu okuyacak.
1585838522,d24e9765e054743d1a4482fa973d6b9b,DashedAcceptabilityJudgment,108,0,expSA_c,19,9,okuyacak.,1751,False,Müzisyen ve alımlı modele yaklaşan aktör onlara duyuruyu okuyacak.
# The lines below this comment are in groups of 2.
# The formats of the lines in each of these groups are as follows:
#
# Line 1:
#     Col. 1: Time results were received.
#     Col. 2: MD5 hash of participant's IP address.
#     Col. 3: Controller name.
#     Col. 4: Item number.
#     Col. 5: Element number.
#     Col. 6: Type.
#     Col. 7: Group.
#     Col. 8: Question (NULL if none).
#     Col. 9: Answer.
#     Col. 10: Whether or not answer was correct (NULL if N/A).
#     Col. 11: Time taken to answer.
# Line 2:
#     Col. 1: Time results were received.
#     Col. 2: MD5 hash of participant's IP address.
#     Col. 3: Controller name.
#     Col. 4: Item number.
#     Col. 5: Element number.
#     Col. 6: Type.
#     Col. 7: Group.
#     Col. 8: Word number.
#     Col. 9: Word.
#     Col. 10: Reading time.
#     Col. 11: Newline?
#     Col. 12: Sentence (or sentence MD5).
1585838522,d24e9765e054743d1a4482fa973d6b9b,DashedAcceptabilityJudgment,108,0,expSA_c,19,Müzisyen aktöre duyuruyu okuyacak.,Hayır (P'ye basınız),NULL,3836
1585838522,d24e9765e054743d1a4482fa973d6b9b,DashedAcceptabilityJudgment,177,0,filler,108,1,Yeni,314,False,Yeni ameliyat olan hastayı hemşire çok fena azarladı.
# Columns below this comment are as follows:
# 1. Time results were received.
# 2. MD5 hash of participant's IP address.
# 3. Controller name.
# 4. Item number.
# 5. Element number.
# 6. Type.
# 7. Group.
# 8. Word number.
# 9. Word.
# 10. Reading time.
# 11. Newline?
# 12. Sentence (or sentence MD5).
1585838522,d24e9765e054743d1a4482fa973d6b9b,DashedAcceptabilityJudgment,177,0,filler,108,2,ameliyat,348,False,Yeni ameliyat olan hastayı hemşire çok fena azarladı.
1585838522,d24e9765e054743d1a4482fa973d6b9b,DashedAcceptabilityJudgment,177,0,filler,108,3,olan,332,False,Yeni ameliyat olan hastayı hemşire çok fena azarladı.
1585838522,d24e9765e054743d1a4482fa973d6b9b,DashedAcceptabilityJudgment,177,0,filler,108,4,hastayı,307,False,Yeni ameliyat olan hastayı hemşire çok fena azarladı.
1585838522,d24e9765e054743d1a4482fa973d6b9b,DashedAcceptabilityJudgment,177,0,filler,108,5,hemşire,375,False,Yeni ameliyat olan hastayı hemşire çok fena azarladı.
1585838522,d24e9765e054743d1a4482fa973d6b9b,DashedAcceptabilityJudgment,177,0,filler,108,6,çok,493,False,Yeni ameliyat olan hastayı hemşire çok fena azarladı.
1585838522,d24e9765e054743d1a4482fa973d6b9b,DashedAcceptabilityJudgment,177,0,filler,108,7,fena,308,False,Yeni ameliyat olan hastayı hemşire çok fena azarladı.
1585838522,d24e9765e054743d1a4482fa973d6b9b,DashedAcceptabilityJudgment,177,0,filler,108,8,azarladı.,301,False,Yeni ameliyat olan hastayı hemşire çok fena azarladı.
# The lines below this comment are in groups of 2.
# The formats of the lines in each of these groups are as follows:
#
# Line 1:
#     Col. 1: Time results were received.
#     Col. 2: MD5 hash of participant's IP address.
#     Col. 3: Controller name.
#     Col. 4: Item number.
#     Col. 5: Element number.
#     Col. 6: Type.
#     Col. 7: Group.
#     Col. 8: Question (NULL if none).
#     Col. 9: Answer.
#     Col. 10: Whether or not answer was correct (NULL if N/A).
#     Col. 11: Time taken to answer.
# Line 2:
#     Col. 1: Time results were received.
#     Col. 2: MD5 hash of participant's IP address.
#     Col. 3: Controller name.
#     Col. 4: Item number.
#     Col. 5: Element number.
#     Col. 6: Type.
#     Col. 7: Group.
#     Col. 8: Word number.
#     Col. 9: Word.
#     Col. 10: Reading time.
#     Col. 11: Newline?
#     Col. 12: Sentence (or sentence MD5).
1585838522,d24e9765e054743d1a4482fa973d6b9b,DashedAcceptabilityJudgment,177,0,filler,108,Hasta yeni ameliyat olmuş.,Evet (Q'ya basınız),NULL,1721
1585838522,d24e9765e054743d1a4482fa973d6b9b,DashedAcceptabilityJudgment,174,0,filler,105,1,Sabırsız,343,False,Sabırsız öğretmeni gören okul müdürü hemen çocuklara seslendi.
# Columns below this comment are as follows:
# 1. Time results were received.
# 2. MD5 hash of participant's IP address.
# 3. Controller name.
# 4. Item number.
# 5. Element number.
# 6. Type.
# 7. Group.
# 8. Word number.
# 9. Word.
# 10. Reading time.
# 11. Newline?
# 12. Sentence (or sentence MD5).
1585838522,d24e9765e054743d1a4482fa973d6b9b,DashedAcceptabilityJudgment,174,0,filler,105,2,öğretmeni,256,False,Sabırsız öğretmeni gören okul müdürü hemen çocuklara seslendi.
1585838522,d24e9765e054743d1a4482fa973d6b9b,DashedAcceptabilityJudgment,174,0,filler,105,3,gören,290,False,Sabırsız öğretmeni gören okul müdürü hemen çocuklara seslendi.
1585838522,d24e9765e054743d1a4482fa973d6b9b,DashedAcceptabilityJudgment,174,0,filler,105,4,okul,336,False,Sabırsız öğretmeni gören okul müdürü hemen çocuklara seslendi.
1585838522,d24e9765e054743d1a4482fa973d6b9b,DashedAcceptabilityJudgment,174,0,filler,105,5,müdürü,334,False,Sabırsız öğretmeni gören okul müdürü hemen çocuklara seslendi.
1585838522,d24e9765e054743d1a4482fa973d6b9b,DashedAcceptabilityJudgment,174,0,filler,105,6,hemen,301,False,Sabırsız öğretmeni gören okul müdürü hemen çocuklara seslendi.
1585838522,d24e9765e054743d1a4482fa973d6b9b,DashedAcceptabilityJudgment,174,0,filler,105,7,çocuklara,282,False,Sabırsız öğretmeni gören okul müdürü hemen çocuklara seslendi.
1585838522,d24e9765e054743d1a4482fa973d6b9b,DashedAcceptabilityJudgment,174,0,filler,105,8,seslendi.,278,False,Sabırsız öğretmeni gören okul müdürü hemen çocuklara seslendi.
# The lines below this comment are in groups of 2.
# The formats of the lines in each of these groups are as follows:
#
# Line 1:
#     Col. 1: Time results were received.
#     Col. 2: MD5 hash of participant's IP address.
#     Col. 3: Controller name.
#     Col. 4: Item number.
#     Col. 5: Element number.
#     Col. 6: Type.
#     Col. 7: Group.
#     Col. 8: Question (NULL if none).
#     Col. 9: Answer.
#     Col. 10: Whether or not answer was correct (NULL if N/A).
#     Col. 11: Time taken to answer.
# Line 2:
#     Col. 1: Time results were received.
#     Col. 2: MD5 hash of participant's IP address.
#     Col. 3: Controller name.
#     Col. 4: Item number.
#     Col. 5: Element number.
#     Col. 6: Type.
#     Col. 7: Group.
#     Col. 8: Word number.
#     Col. 9: Word.
#     Col. 10: Reading time.
#     Col. 11: Newline?
#     Col. 12: Sentence (or sentence MD5).
1585838522,d24e9765e054743d1a4482fa973d6b9b,DashedAcceptabilityJudgment,174,0,filler,105,Öğretmen sabırsızmış.,Evet (Q'ya basınız),NULL,4014
1585838522,d24e9765e054743d1a4482fa973d6b9b,DashedAcceptabilityJudgment,30,0,expSA_a,21,1,Yatırımcı,311,False,Yatırımcı ve işçiye bakan mühendis onları planlarla bilgilendirdi.
# Columns below this comment are as follows:
# 1. Time results were received.
# 2. MD5 hash of participant's IP address.
# 3. Controller name.
# 4. Item number.
# 5. Element number.
# 6. Type.
# 7. Group.
# 8. Word number.
# 9. Word.
# 10. Reading time.
# 11. Newline?
# 12. Sentence (or sentence MD5).
1585838522,d24e9765e054743d1a4482fa973d6b9b,DashedAcceptabilityJudgment,30,0,expSA_a,21,2,ve,324,False,Yatırımcı ve işçiye bakan mühendis onları planlarla bilgilendirdi.
1585838522,d24e9765e054743d1a4482fa973d6b9b,DashedAcceptabilityJudgment,30,0,expSA_a,21,3,işçiye,556,False,Yatırımcı ve işçiye bakan mühendis onları planlarla bilgilendirdi.
1585838522,d24e9765e054743d1a4482fa973d6b9b,DashedAcceptabilityJudgment,30,0,expSA_a,21,4,bakan,363,False,Yatırımcı ve işçiye bakan mühendis onları planlarla bilgilendirdi.
1585838522,d24e9765e054743d1a4482fa973d6b9b,DashedAcceptabilityJudgment,30,0,expSA_a,21,5,mühendis,865,False,Yatırımcı ve işçiye bakan mühendis onları planlarla bilgilendirdi.
1585838522,d24e9765e054743d1a4482fa973d6b9b,DashedAcceptabilityJudgment,30,0,expSA_a,21,6,onları,859,False,Yatırımcı ve işçiye bakan mühendis onları planlarla bilgilendirdi.
1585838522,d24e9765e054743d1a4482fa973d6b9b,DashedAcceptabilityJudgment,30,0,expSA_a,21,7,planlarla,1594,False,Yatırımcı ve işçiye bakan mühendis onları planlarla bilgilendirdi.
1585838522,d24e9765e054743d1a4482fa973d6b9b,DashedAcceptabilityJudgment,30,0,expSA_a,21,8,bilgilendirdi.,709,False,Yatırımcı ve işçiye bakan mühendis onları planlarla bilgilendirdi.
# The lines below this comment are in groups of 2.
# The formats of the lines in each of these groups are as follows:
#
# Line 1:
#     Col. 1: Time results were received.
#     Col. 2: MD5 hash of participant's IP address.
#     Col. 3: Controller name.
#     Col. 4: Item number.
#     Col. 5: Element number.
#     Col. 6: Type.
#     Col. 7: Group.
#     Col. 8: Question (NULL if none).
#     Col. 9: Answer.
#     Col. 10: Whether or not answer was correct (NULL if N/A).
#     Col. 11: Time taken to answer.
# Line 2:
#     Col. 1: Time results were received.
#     Col. 2: MD5 hash of participant's IP address.
#     Col. 3: Controller name.
#     Col. 4: Item number.
#     Col. 5: Element number.
#     Col. 6: Type.
#     Col. 7: Group.
#     Col. 8: Word number.
#     Col. 9: Word.
#     Col. 10: Reading time.
#     Col. 11: Newline?
#     Col. 12: Sentence (or sentence MD5).
1585838522,d24e9765e054743d1a4482fa973d6b9b,DashedAcceptabilityJudgment,30,0,expSA_a,21,Mühendis yatırımcıya baktı.,Hayır (P'ye basınız),NULL,14703
1585838522,d24e9765e054743d1a4482fa973d6b9b,DashedAcceptabilityJudgment,202,0,filler,133,1,Muavinin,349,False,Muavinin tarif ettiği yol üzerinde dinlenme tesisi yok.
# Columns below this comment are as follows:
# 1. Time results were received.
# 2. MD5 hash of participant's IP address.
# 3. Controller name.
# 4. Item number.
# 5. Element number.
# 6. Type.
# 7. Group.
# 8. Word number.
# 9. Word.
# 10. Reading time.
# 11. Newline?
# 12. Sentence (or sentence MD5).
1585838522,d24e9765e054743d1a4482fa973d6b9b,DashedAcceptabilityJudgment,202,0,filler,133,2,tarif,227,False,Muavinin tarif ettiği yol üzerinde dinlenme tesisi yok.
1585838522,d24e9765e054743d1a4482fa973d6b9b,DashedAcceptabilityJudgment,202,0,filler,133,3,ettiği,326,False,Muavinin tarif ettiği yol üzerinde dinlenme tesisi yok.
1585838522,d24e9765e054743d1a4482fa973d6b9b,DashedAcceptabilityJudgment,202,0,filler,133,4,yol,303,False,Muavinin tarif ettiği yol üzerinde dinlenme tesisi yok.
1585838522,d24e9765e054743d1a4482fa973d6b9b,DashedAcceptabilityJudgment,202,0,filler,133,5,üzerinde,204,False,Muavinin tarif ettiği yol üzerinde dinlenme tesisi yok.
1585838522,d24e9765e054743d1a4482fa973d6b9b,DashedAcceptabilityJudgment,202,0,filler,133,6,dinlenme,245,False,Muavinin tarif ettiği yol üzerinde dinlenme tesisi yok.
1585838522,d24e9765e054743d1a4482fa973d6b9b,DashedAcceptabilityJudgment,202,0,filler,133,7,tesisi,241,False,Muavinin tarif ettiği yol üzerinde dinlenme tesisi yok.
1585838522,d24e9765e054743d1a4482fa973d6b9b,DashedAcceptabilityJudgment,202,0,filler,133,8,yok.,277,False,Muavinin tarif ettiği yol üzerinde dinlenme tesisi yok.
# The lines below this comment are in groups of 2.
# The formats of the lines in each of these groups are as follows:
#
# Line 1:
#     Col. 1: Time results were received.
#     Col. 2: MD5 hash of participant's IP address.
#     Col. 3: Controller name.
#     Col. 4: Item number.
#     Col. 5: Element number.
#     Col. 6: Type.
#     Col. 7: Group.
#     Col. 8: Question (NULL if none).
#     Col. 9: Answer.
#     Col. 10: Whether or not answer was correct (NULL if N/A).
#     Col. 11: Time taken to answer.
# Line 2:
#     Col. 1: Time results were received.
#     Col. 2: MD5 hash of participant's IP address.
#     Col. 3: Controller name.
#     Col. 4: Item number.
#     Col. 5: Element number.
#     Col. 6: Type.
#     Col. 7: Group.
#     Col. 8: Word number.
#     Col. 9: Word.
#     Col. 10: Reading time.
#     Col. 11: Newline?
#     Col. 12: Sentence (or sentence MD5).
1585838522,d24e9765e054743d1a4482fa973d6b9b,DashedAcceptabilityJudgment,202,0,filler,133,Yol üzerinde dinlenme tesisi var.,Hayır (P'ye basınız),NULL,2052
1585838522,d24e9765e054743d1a4482fa973d6b9b,DashedAcceptabilityJudgment,183,0,filler,114,1,Elektrik,233,False,Elektrik faturası ve benzin ücretlerinin arttığı bir dönemdeyiz.
# Columns below this comment are as follows:
# 1. Time results were received.
# 2. MD5 hash of participant's IP address.
# 3. Controller name.
# 4. Item number.
# 5. Element number.
# 6. Type.
# 7. Group.
# 8. Word number.
# 9. Word.
# 10. Reading time.
# 11. Newline?
# 12. Sentence (or sentence MD5).
1585838522,d24e9765e054743d1a4482fa973d6b9b,DashedAcceptabilityJudgment,183,0,filler,114,2,faturası,286,False,Elektrik faturası ve benzin ücretlerinin arttığı bir dönemdeyiz.
1585838522,d24e9765e054743d1a4482fa973d6b9b,DashedAcceptabilityJudgment,183,0,filler,114,3,ve,233,False,Elektrik faturası ve benzin ücretlerinin arttığı bir dönemdeyiz.
1585838522,d24e9765e054743d1a4482fa973d6b9b,DashedAcceptabilityJudgment,183,0,filler,114,4,benzin,333,False,Elektrik faturası ve benzin ücretlerinin arttığı bir dönemdeyiz.
1585838522,d24e9765e054743d1a4482fa973d6b9b,DashedAcceptabilityJudgment,183,0,filler,114,5,ücretlerinin,248,False,Elektrik faturası ve benzin ücretlerinin arttığı bir dönemdeyiz.
1585838522,d24e9765e054743d1a4482fa973d6b9b,DashedAcceptabilityJudgment,183,0,filler,114,6,arttığı,358,False,Elektrik faturası ve benzin ücretlerinin arttığı bir dönemdeyiz.
1585838522,d24e9765e054743d1a4482fa973d6b9b,DashedAcceptabilityJudgment,183,0,filler,114,7,bir,340,False,Elektrik faturası ve benzin ücretlerinin arttığı bir dönemdeyiz.
1585838522,d24e9765e054743d1a4482fa973d6b9b,DashedAcceptabilityJudgment,183,0,filler,114,8,dönemdeyiz.,239,False,Elektrik faturası ve benzin ücretlerinin arttığı bir dönemdeyiz.
# The lines below this comment are in groups of 2.
# The formats of the lines in each of these groups are as follows:
#
# Line 1:
#     Col. 1: Time results were received.
#     Col. 2: MD5 hash of participant's IP address.
#     Col. 3: Controller name.
#     Col. 4: Item number.
#     Col. 5: Element number.
#     Col. 6: Type.
#     Col. 7: Group.
#     Col. 8: Question (NULL if none).
#     Col. 9: Answer.
#     Col. 10: Whether or not answer was correct (NULL if N/A).
#     Col. 11: Time taken to answer.
# Line 2:
#     Col. 1: Time results were received.
#     Col. 2: MD5 hash of participant's IP address.
#     Col. 3: Controller name.
#     Col. 4: Item number.
#     Col. 5: Element number.
#     Col. 6: Type.
#     Col. 7: Group.
#     Col. 8: Word number.
#     Col. 9: Word.
#     Col. 10: Reading time.
#     Col. 11: Newline?
#     Col. 12: Sentence (or sentence MD5).
1585838522,d24e9765e054743d1a4482fa973d6b9b,DashedAcceptabilityJudgment,183,0,filler,114,Benzin ücretleri artıyor.,Evet (Q'ya basınız),NULL,1403
1585838522,d24e9765e054743d1a4482fa973d6b9b,DashedAcceptabilityJudgment,14,0,expSA_a,5,1,Adam,248,False,Adam ve garsonu farkeden kadın onları restoranda gördü.
# Columns below this comment are as follows:
# 1. Time results were received.
# 2. MD5 hash of participant's IP address.
# 3. Controller name.
# 4. Item number.
# 5. Element number.
# 6. Type.
# 7. Group.
# 8. Word number.
# 9. Word.
# 10. Reading time.
# 11. Newline?
# 12. Sentence (or sentence MD5).
1585838522,d24e9765e054743d1a4482fa973d6b9b,DashedAcceptabilityJudgment,14,0,expSA_a,5,2,ve,224,False,Adam ve garsonu farkeden kadın onları restoranda gördü.
1585838522,d24e9765e054743d1a4482fa973d6b9b,DashedAcceptabilityJudgment,14,0,expSA_a,5,3,garsonu,215,False,Adam ve garsonu farkeden kadın onları restoranda gördü.
1585838522,d24e9765e054743d1a4482fa973d6b9b,DashedAcceptabilityJudgment,14,0,expSA_a,5,4,farkeden,235,False,Adam ve garsonu farkeden kadın onları restoranda gördü.
1585838522,d24e9765e054743d1a4482fa973d6b9b,DashedAcceptabilityJudgment,14,0,expSA_a,5,5,kadın,233,False,Adam ve garsonu farkeden kadın onları restoranda gördü.
1585838522,d24e9765e054743d1a4482fa973d6b9b,DashedAcceptabilityJudgment,14,0,expSA_a,5,6,onları,232,False,Adam ve garsonu farkeden kadın onları restoranda gördü.
1585838522,d24e9765e054743d1a4482fa973d6b9b,DashedAcceptabilityJudgment,14,0,expSA_a,5,7,restoranda,255,False,Adam ve garsonu farkeden kadın onları restoranda gördü.
1585838522,d24e9765e054743d1a4482fa973d6b9b,DashedAcceptabilityJudgment,14,0,expSA_a,5,8,gördü.,324,False,Adam ve garsonu farkeden kadın onları restoranda gördü.
# The lines below this comment are in groups of 2.
# The formats of the lines in each of these groups are as follows:
#
# Line 1:
#     Col. 1: Time results were received.
#     Col. 2: MD5 hash of participant's IP address.
#     Col. 3: Controller name.
#     Col. 4: Item number.
#     Col. 5: Element number.
#     Col. 6: Type.
#     Col. 7: Group.
#     Col. 8: Question (NULL if none).
#     Col. 9: Answer.
#     Col. 10: Whether or not answer was correct (NULL if N/A).
#     Col. 11: Time taken to answer.
# Line 2:
#     Col. 1: Time results were received.
#     Col. 2: MD5 hash of participant's IP address.
#     Col. 3: Controller name.
#     Col. 4: Item number.
#     Col. 5: Element number.
#     Col. 6: Type.
#     Col. 7: Group.
#     Col. 8: Word number.
#     Col. 9: Word.
#     Col. 10: Reading time.
#     Col. 11: Newline?
#     Col. 12: Sentence (or sentence MD5).
1585838522,d24e9765e054743d1a4482fa973d6b9b,DashedAcceptabilityJudgment,14,0,expSA_a,5,Adam kadını gördü.,Hayır (P'ye basınız),NULL,17219
1585838522,d24e9765e054743d1a4482fa973d6b9b,DashedAcceptabilityJudgment,197,0,filler,128,1,Yaya,320,False,Yaya geçidinde kırmızı ışığın yanmasını beklemeyen şoförler vardı.
# Columns below this comment are as follows:
# 1. Time results were received.
# 2. MD5 hash of participant's IP address.
# 3. Controller name.
# 4. Item number.
# 5. Element number.
# 6. Type.
# 7. Group.
# 8. Word number.
# 9. Word.
# 10. Reading time.
# 11. Newline?
# 12. Sentence (or sentence MD5).
1585838522,d24e9765e054743d1a4482fa973d6b9b,DashedAcceptabilityJudgment,197,0,filler,128,2,geçidinde,298,False,Yaya geçidinde kırmızı ışığın yanmasını beklemeyen şoförler vardı.
1585838522,d24e9765e054743d1a4482fa973d6b9b,DashedAcceptabilityJudgment,197,0,filler,128,3,kırmızı,268,False,Yaya geçidinde kırmızı ışığın yanmasını beklemeyen şoförler vardı.
1585838522,d24e9765e054743d1a4482fa973d6b9b,DashedAcceptabilityJudgment,197,0,filler,128,4,ışığın,404,False,Yaya geçidinde kırmızı ışığın yanmasını beklemeyen şoförler vardı.
1585838522,d24e9765e054743d1a4482fa973d6b9b,DashedAcceptabilityJudgment,197,0,filler,128,5,yanmasını,354,False,Yaya geçidinde kırmızı ışığın yanmasını beklemeyen şoförler vardı.
1585838522,d24e9765e054743d1a4482fa973d6b9b,DashedAcceptabilityJudgment,197,0,filler,128,6,beklemeyen,345,False,Yaya geçidinde kırmızı ışığın yanmasını beklemeyen şoförler vardı.
1585838522,d24e9765e054743d1a4482fa973d6b9b,DashedAcceptabilityJudgment,197,0,filler,128,7,şoförler,678,False,Yaya geçidinde kırmızı ışığın yanmasını beklemeyen şoförler vardı.
1585838522,d24e9765e054743d1a4482fa973d6b9b,DashedAcceptabilityJudgment,197,0,filler,128,8,vardı.,5624,False,Yaya geçidinde kırmızı ışığın yanmasını beklemeyen şoförler vardı.
# The lines below this comment are in groups of 2.
# The formats of the lines in each of these groups are as follows:
#
# Line 1:
#     Col. 1: Time results were received.
#     Col. 2: MD5 hash of participant's IP address.
#     Col. 3: Controller name.
#     Col. 4: Item number.
#     Col. 5: Element number.
#     Col. 6: Type.
#     Col. 7: Group.
#     Col. 8: Question (NULL if none).
#     Col. 9: Answer.
#     Col. 10: Whether or not answer was correct (NULL if N/A).
#     Col. 11: Time taken to answer.
# Line 2:
#     Col. 1: Time results were received.
#     Col. 2: MD5 hash of participant's IP address.
#     Col. 3: Controller name.
#     Col. 4: Item number.
#     Col. 5: Element number.
#     Col. 6: Type.
#     Col. 7: Group.
#     Col. 8: Word number.
#     Col. 9: Word.
#     Col. 10: Reading time.
#     Col. 11: Newline?
#     Col. 12: Sentence (or sentence MD5).
1585838522,d24e9765e054743d1a4482fa973d6b9b,DashedAcceptabilityJudgment,197,0,filler,128,Hiçbir şoför ışığı beklemedi.,Hayır (P'ye basınız),NULL,5823
1585838522,d24e9765e054743d1a4482fa973d6b9b,DashedAcceptabilityJudgment,233,0,filler,164,1,Çırağın,419,False,Çırağın yanlış bağladığı kabloları düzelten teknisyen çok vakit kaybetti.
# Columns below this comment are as follows:
# 1. Time results were received.
# 2. MD5 hash of participant's IP address.
# 3. Controller name.
# 4. Item number.
# 5. Element number.
# 6. Type.
# 7. Group.
# 8. Word number.
# 9. Word.
# 10. Reading time.
# 11. Newline?
# 12. Sentence (or sentence MD5).
1585838522,d24e9765e054743d1a4482fa973d6b9b,DashedAcceptabilityJudgment,233,0,filler,164,2,yanlış,271,False,Çırağın yanlış bağladığı kabloları düzelten teknisyen çok vakit kaybetti.
1585838522,d24e9765e054743d1a4482fa973d6b9b,DashedAcceptabilityJudgment,233,0,filler,164,3,bağladığı,274,False,Çırağın yanlış bağladığı kabloları düzelten teknisyen çok vakit kaybetti.
1585838522,d24e9765e054743d1a4482fa973d6b9b,DashedAcceptabilityJudgment,233,0,filler,164,4,kabloları,546,False,Çırağın yanlış bağladığı kabloları düzelten teknisyen çok vakit kaybetti.
1585838522,d24e9765e054743d1a4482fa973d6b9b,DashedAcceptabilityJudgment,233,0,filler,164,5,düzelten,345,False,Çırağın yanlış bağladığı kabloları düzelten teknisyen çok vakit kaybetti.
1585838522,d24e9765e054743d1a4482fa973d6b9b,DashedAcceptabilityJudgment,233,0,filler,164,6,teknisyen,419,False,Çırağın yanlış bağladığı kabloları düzelten teknisyen çok vakit kaybetti.
1585838522,d24e9765e054743d1a4482fa973d6b9b,DashedAcceptabilityJudgment,233,0,filler,164,7,çok,392,False,Çırağın yanlış bağladığı kabloları düzelten teknisyen çok vakit kaybetti.
1585838522,d24e9765e054743d1a4482fa973d6b9b,DashedAcceptabilityJudgment,233,0,filler,164,8,vakit,331,False,Çırağın yanlış bağladığı kabloları düzelten teknisyen çok vakit kaybetti.
1585838522,d24e9765e054743d1a4482fa973d6b9b,DashedAcceptabilityJudgment,233,0,filler,164,9,kaybetti.,564,False,Çırağın yanlış bağladığı kabloları düzelten teknisyen çok vakit kaybetti.
# The lines below this comment are in groups of 2.
# The formats of the lines in each of these groups are as follows:
#
# Line 1:
#     Col. 1: Time results were received.
#     Col. 2: MD5 hash of participant's IP address.
#     Col. 3: Controller name.
#     Col. 4: Item number.
#     Col. 5: Element number.
#     Col. 6: Type.
#     Col. 7: Group.
#     Col. 8: Question (NULL if none).
#     Col. 9: Answer.
#     Col. 10: Whether or not answer was correct (NULL if N/A).
#     Col. 11: Time taken to answer.
# Line 2:
#     Col. 1: Time results were received.
#     Col. 2: MD5 hash of participant's IP address.
#     Col. 3: Controller name.
#     Col. 4: Item number.
#     Col. 5: Element number.
#     Col. 6: Type.
#     Col. 7: Group.
#     Col. 8: Word number.
#     Col. 9: Word.
#     Col. 10: Reading time.
#     Col. 11: Newline?
#     Col. 12: Sentence (or sentence MD5).
1585838522,d24e9765e054743d1a4482fa973d6b9b,DashedAcceptabilityJudgment,233,0,filler,164,Çırak kabloyu doğru bağlamış.,Hayır (P'ye basınız),NULL,1967
1585838522,d24e9765e054743d1a4482fa973d6b9b,DashedAcceptabilityJudgment,100,0,expSA_c,11,1,Hostes,343,False,Hostes ve genç yolcuyu beğenen pilot onları uçakta gözetliyor.
# Columns below this comment are as follows:
# 1. Time results were received.
# 2. MD5 hash of participant's IP address.
# 3. Controller name.
# 4. Item number.
# 5. Element number.
# 6. Type.
# 7. Group.
# 8. Word number.
# 9. Word.
# 10. Reading time.
# 11. Newline?
# 12. Sentence (or sentence MD5).
1585838522,d24e9765e054743d1a4482fa973d6b9b,DashedAcceptabilityJudgment,100,0,expSA_c,11,2,ve,290,False,Hostes ve genç yolcuyu beğenen pilot onları uçakta gözetliyor.
1585838522,d24e9765e054743d1a4482fa973d6b9b,DashedAcceptabilityJudgment,100,0,expSA_c,11,3,genç,257,False,Hostes ve genç yolcuyu beğenen pilot onları uçakta gözetliyor.
1585838522,d24e9765e054743d1a4482fa973d6b9b,DashedAcceptabilityJudgment,100,0,expSA_c,11,4,yolcuyu,319,False,Hostes ve genç yolcuyu beğenen pilot onları uçakta gözetliyor.
1585838522,d24e9765e054743d1a4482fa973d6b9b,DashedAcceptabilityJudgment,100,0,expSA_c,11,5,beğenen,270,False,Hostes ve genç yolcuyu beğenen pilot onları uçakta gözetliyor.
1585838522,d24e9765e054743d1a4482fa973d6b9b,DashedAcceptabilityJudgment,100,0,expSA_c,11,6,pilot,266,False,Hostes ve genç yolcuyu beğenen pilot onları uçakta gözetliyor.
1585838522,d24e9765e054743d1a4482fa973d6b9b,DashedAcceptabilityJudgment,100,0,expSA_c,11,7,onları,339,False,Hostes ve genç yolcuyu beğenen pilot onları uçakta gözetliyor.
