#
# Results on Wednesday February 19 2020 02:17:13 UTC.
# USER AGENT: Mozilla/5.0 (X11; Linux x86_64) AppleWebKit/537.36 (KHTML, like Gecko) Chrome/80.0.3987.106 Safari/537.36
# Design number was non-random = 0
#
# Columns below this comment are as follows:
# 1. Time results were received.
# 2. MD5 hash of participant's IP address.
# 3. Controller name.
# 4. Item number.
# 5. Element number.
# 6. Type.
# 7. Group.
# 8. Field name.
# 9. Field value.
1582078633,29f5b743582ec9378c9469e42bc4a58b,Form,2,0,intro,NULL,name,Furkan
1582078633,29f5b743582ec9378c9469e42bc4a58b,Form,2,0,intro,NULL,age,24
1582078633,29f5b743582ec9378c9469e42bc4a58b,Form,2,0,intro,NULL,write_something,asd
1582078633,29f5b743582ec9378c9469e42bc4a58b,Form,2,0,intro,NULL,credit,yes
1582078633,29f5b743582ec9378c9469e42bc4a58b,Form,2,0,intro,NULL,consent,yes
1582078633,29f5b743582ec9378c9469e42bc4a58b,Form,2,0,intro,NULL,sex,male
1582078633,29f5b743582ec9378c9469e42bc4a58b,Form,2,0,intro,NULL,_REACTION_TIME_,10378
# Columns below this comment are as follows:
# 1. Time results were received.
# 2. MD5 hash of participant's IP address.
# 3. Controller name.
# 4. Item number.
# 5. Element number.
# 6. Type.
# 7. Group.
# 8. Word number.
# 9. Word.
# 10. Reading time.
# 11. Newline?
# 12. Sentence (or sentence MD5).
1582078633,29f5b743582ec9378c9469e42bc4a58b,DashedSentence,3,0,practice,NULL,1,Bu,215,False,Bu pratik yapmanız için ilk cümle.
1582078633,29f5b743582ec9378c9469e42bc4a58b,DashedSentence,3,0,practice,NULL,2,pratik,208,False,Bu pratik yapmanız için ilk cümle.
1582078633,29f5b743582ec9378c9469e42bc4a58b,DashedSentence,3,0,practice,NULL,3,yapmanız,144,False,Bu pratik yapmanız için ilk cümle.
1582078633,29f5b743582ec9378c9469e42bc4a58b,DashedSentence,3,0,practice,NULL,4,için,184,False,Bu pratik yapmanız için ilk cümle.
1582078633,29f5b743582ec9378c9469e42bc4a58b,DashedSentence,3,0,practice,NULL,5,ilk,176,False,Bu pratik yapmanız için ilk cümle.
1582078633,29f5b743582ec9378c9469e42bc4a58b,DashedSentence,3,0,practice,NULL,6,cümle.,336,False,Bu pratik yapmanız için ilk cümle.
# The lines below this comment are in groups of 2.
# The formats of the lines in each of these groups are as follows:
#
# Line 1:
#     Col. 1: Time results were received.
#     Col. 2: MD5 hash of participant's IP address.
#     Col. 3: Controller name.
#     Col. 4: Item number.
#     Col. 5: Element number.
#     Col. 6: Type.
#     Col. 7: Group.
#     Col. 8: Question (NULL if none).
#     Col. 9: Answer.
#     Col. 10: Whether or not answer was correct (NULL if N/A).
#     Col. 11: Time taken to answer.
# Line 2:
#     Col. 1: Time results were received.
#     Col. 2: MD5 hash of participant's IP address.
#     Col. 3: Controller name.
#     Col. 4: Item number.
#     Col. 5: Element number.
#     Col. 6: Type.
#     Col. 7: Group.
#     Col. 8: Word number.
#     Col. 9: Word.
#     Col. 10: Reading time.
#     Col. 11: Newline?
#     Col. 12: Sentence (or sentence MD5).
1582078633,29f5b743582ec9378c9469e42bc4a58b,Question,3,1,practice,NULL,Pratik yapmak için ilk cümleydi.,Evet (Q'ya basınız),NULL,795
1582078633,29f5b743582ec9378c9469e42bc4a58b,DashedAcceptabilityJudgment,6,0,expSA_a,3,1,muhabir,328,False,muhabir ve görevliyi duyan bakan toplantıya tek başına gitti.
# Columns below this comment are as follows:
# 1. Time results were received.
# 2. MD5 hash of participant's IP address.
# 3. Controller name.
# 4. Item number.
# 5. Element number.
# 6. Type.
# 7. Group.
# 8. Word number.
# 9. Word.
# 10. Reading time.
# 11. Newline?
# 12. Sentence (or sentence MD5).
1582078633,29f5b743582ec9378c9469e42bc4a58b,DashedAcceptabilityJudgment,6,0,expSA_a,3,2,ve,352,False,muhabir ve görevliyi duyan bakan toplantıya tek başına gitti.
1582078633,29f5b743582ec9378c9469e42bc4a58b,DashedAcceptabilityJudgment,6,0,expSA_a,3,3,görevliyi,456,False,muhabir ve görevliyi duyan bakan toplantıya tek başına gitti.
1582078633,29f5b743582ec9378c9469e42bc4a58b,DashedAcceptabilityJudgment,6,0,expSA_a,3,4,duyan,400,False,muhabir ve görevliyi duyan bakan toplantıya tek başına gitti.
1582078633,29f5b743582ec9378c9469e42bc4a58b,DashedAcceptabilityJudgment,6,0,expSA_a,3,5,bakan,368,False,muhabir ve görevliyi duyan bakan toplantıya tek başına gitti.
1582078633,29f5b743582ec9378c9469e42bc4a58b,DashedAcceptabilityJudgment,6,0,expSA_a,3,6,toplantıya,400,False,muhabir ve görevliyi duyan bakan toplantıya tek başına gitti.
1582078633,29f5b743582ec9378c9469e42bc4a58b,DashedAcceptabilityJudgment,6,0,expSA_a,3,7,tek,432,False,muhabir ve görevliyi duyan bakan toplantıya tek başına gitti.
1582078633,29f5b743582ec9378c9469e42bc4a58b,DashedAcceptabilityJudgment,6,0,expSA_a,3,8,başına,384,False,muhabir ve görevliyi duyan bakan toplantıya tek başına gitti.
1582078633,29f5b743582ec9378c9469e42bc4a58b,DashedAcceptabilityJudgment,6,0,expSA_a,3,9,gitti.,400,False,muhabir ve görevliyi duyan bakan toplantıya tek başına gitti.
# The lines below this comment are in groups of 2.
# The formats of the lines in each of these groups are as follows:
#
# Line 1:
#     Col. 1: Time results were received.
#     Col. 2: MD5 hash of participant's IP address.
#     Col. 3: Controller name.
#     Col. 4: Item number.
#     Col. 5: Element number.
#     Col. 6: Type.
#     Col. 7: Group.
#     Col. 8: Question (NULL if none).
#     Col. 9: Answer.
#     Col. 10: Whether or not answer was correct (NULL if N/A).
#     Col. 11: Time taken to answer.
# Line 2:
#     Col. 1: Time results were received.
#     Col. 2: MD5 hash of participant's IP address.
#     Col. 3: Controller name.
#     Col. 4: Item number.
#     Col. 5: Element number.
#     Col. 6: Type.
#     Col. 7: Group.
#     Col. 8: Word number.
#     Col. 9: Word.
#     Col. 10: Reading time.
#     Col. 11: Newline?
#     Col. 12: Sentence (or sentence MD5).
1582078633,29f5b743582ec9378c9469e42bc4a58b,DashedAcceptabilityJudgment,6,0,expSA_a,3,Okuduğunuz cümle doğal mı?,Evet (Q'ya basınız),NULL,627
1582078633,29f5b743582ec9378c9469e42bc4a58b,DashedAcceptabilityJudgment,4,0,expSA_a,1,1,çocuk,401,False,@çocuk @ve @kadını @kurtaran @adam @eve tek @başına @geldi.
# Columns below this comment are as follows:
# 1. Time results were received.
# 2. MD5 hash of participant's IP address.
# 3. Controller name.
# 4. Item number.
# 5. Element number.
# 6. Type.
# 7. Group.
# 8. Word number.
# 9. Word.
# 10. Reading time.
# 11. Newline?
# 12. Sentence (or sentence MD5).
1582078633,29f5b743582ec9378c9469e42bc4a58b,DashedAcceptabilityJudgment,4,0,expSA_a,1,2,@ve,None,False,@çocuk @ve @kadını @kurtaran @adam @eve tek @başına @geldi.
1582078633,29f5b743582ec9378c9469e42bc4a58b,DashedAcceptabilityJudgment,4,0,expSA_a,1,3,@kadını,None,False,@çocuk @ve @kadını @kurtaran @adam @eve tek @başına @geldi.
1582078633,29f5b743582ec9378c9469e42bc4a58b,DashedAcceptabilityJudgment,4,0,expSA_a,1,4,@kurtaran,None,False,@çocuk @ve @kadını @kurtaran @adam @eve tek @başına @geldi.
1582078633,29f5b743582ec9378c9469e42bc4a58b,DashedAcceptabilityJudgment,4,0,expSA_a,1,5,@adam,None,False,@çocuk @ve @kadını @kurtaran @adam @eve tek @başına @geldi.
1582078633,29f5b743582ec9378c9469e42bc4a58b,DashedAcceptabilityJudgment,4,0,expSA_a,1,6,@eve,None,False,@çocuk @ve @kadını @kurtaran @adam @eve tek @başına @geldi.
1582078633,29f5b743582ec9378c9469e42bc4a58b,DashedAcceptabilityJudgment,4,0,expSA_a,1,7,tek,None,False,@çocuk @ve @kadını @kurtaran @adam @eve tek @başına @geldi.
1582078633,29f5b743582ec9378c9469e42bc4a58b,DashedAcceptabilityJudgment,4,0,expSA_a,1,8,@başına,None,False,@çocuk @ve @kadını @kurtaran @adam @eve tek @başına @geldi.
1582078633,29f5b743582ec9378c9469e42bc4a58b,DashedAcceptabilityJudgment,4,0,expSA_a,1,9,@geldi.,None,False,@çocuk @ve @kadını @kurtaran @adam @eve tek @başına @geldi.
# The lines below this comment are in groups of 2.
# The formats of the lines in each of these groups are as follows:
#
# Line 1:
#     Col. 1: Time results were received.
#     Col. 2: MD5 hash of participant's IP address.
#     Col. 3: Controller name.
#     Col. 4: Item number.
#     Col. 5: Element number.
#     Col. 6: Type.
#     Col. 7: Group.
#     Col. 8: Question (NULL if none).
#     Col. 9: Answer.
#     Col. 10: Whether or not answer was correct (NULL if N/A).
#     Col. 11: Time taken to answer.
# Line 2:
#     Col. 1: Time results were received.
#     Col. 2: MD5 hash of participant's IP address.
#     Col. 3: Controller name.
#     Col. 4: Item number.
#     Col. 5: Element number.
#     Col. 6: Type.
#     Col. 7: Group.
#     Col. 8: Word number.
#     Col. 9: Word.
#     Col. 10: Reading time.
#     Col. 11: Newline?
#     Col. 12: Sentence (or sentence MD5).
1582078633,29f5b743582ec9378c9469e42bc4a58b,DashedAcceptabilityJudgment,4,0,expSA_a,1,Okuduğunuz cümle doğal mı?,Evet (Q'ya basınız),NULL,6949
1582078633,29f5b743582ec9378c9469e42bc4a58b,DashedAcceptabilityJudgment,5,0,expSA_a,2,1,hemşire,376,False,hemşire ve hastayı gören doktor amliyata tek başına girdi.
# Columns below this comment are as follows:
# 1. Time results were received.
# 2. MD5 hash of participant's IP address.
# 3. Controller name.
# 4. Item number.
# 5. Element number.
# 6. Type.
# 7. Group.
# 8. Word number.
# 9. Word.
# 10. Reading time.
# 11. Newline?
# 12. Sentence (or sentence MD5).
1582078633,29f5b743582ec9378c9469e42bc4a58b,DashedAcceptabilityJudgment,5,0,expSA_a,2,2,ve,360,False,hemşire ve hastayı gören doktor amliyata tek başına girdi.
1582078633,29f5b743582ec9378c9469e42bc4a58b,DashedAcceptabilityJudgment,5,0,expSA_a,2,3,hastayı,272,False,hemşire ve hastayı gören doktor amliyata tek başına girdi.
1582078633,29f5b743582ec9378c9469e42bc4a58b,DashedAcceptabilityJudgment,5,0,expSA_a,2,4,gören,248,False,hemşire ve hastayı gören doktor amliyata tek başına girdi.
1582078633,29f5b743582ec9378c9469e42bc4a58b,DashedAcceptabilityJudgment,5,0,expSA_a,2,5,doktor,280,False,hemşire ve hastayı gören doktor amliyata tek başına girdi.
1582078633,29f5b743582ec9378c9469e42bc4a58b,DashedAcceptabilityJudgment,5,0,expSA_a,2,6,amliyata,320,False,hemşire ve hastayı gören doktor amliyata tek başına girdi.
1582078633,29f5b743582ec9378c9469e42bc4a58b,DashedAcceptabilityJudgment,5,0,expSA_a,2,7,tek,288,False,hemşire ve hastayı gören doktor amliyata tek başına girdi.
1582078633,29f5b743582ec9378c9469e42bc4a58b,DashedAcceptabilityJudgment,5,0,expSA_a,2,8,başına,312,False,hemşire ve hastayı gören doktor amliyata tek başına girdi.
1582078633,29f5b743582ec9378c9469e42bc4a58b,DashedAcceptabilityJudgment,5,0,expSA_a,2,9,girdi.,288,False,hemşire ve hastayı gören doktor amliyata tek başına girdi.
# Columns below this comment are as follows:
# 1. Time results were received.
# 2. MD5 hash of participant's IP address.
# 3. Controller name.
# 4. Item number.
# 5. Element number.
# 6. Type.
# 7. Group.
# 8. Question (NULL if none).
# 9. Answer.
# 10. Whether or not answer was correct (NULL if N/A).
# 11. Time taken to answer.
1582078633,29f5b743582ec9378c9469e42bc4a58b,DashedAcceptabilityJudgment,5,0,expSA_a,2,Okuduğunuz cümle doğal mı?,Evet (Q'ya basınız),NULL,685
#
# Results on Wednesday February 19 2020 02:17:19 UTC.
# USER AGENT: Mozilla/5.0 (X11; Linux x86_64) AppleWebKit/537.36 (KHTML, like Gecko) Chrome/80.0.3987.106 Safari/537.36
# Design number was non-random = 0
#
# Columns below this comment are as follows:
# 1. Time results were received.
# 2. MD5 hash of participant's IP address.
# 3. Controller name.
# 4. Item number.
# 5. Element number.
# 6. Type.
# 7. Group.
# 8. Field name.
# 9. Field value.
1582078639,29f5b743582ec9378c9469e42bc4a58b,Form,2,0,intro,NULL,name,Furkan
1582078639,29f5b743582ec9378c9469e42bc4a58b,Form,2,0,intro,NULL,age,24
1582078639,29f5b743582ec9378c9469e42bc4a58b,Form,2,0,intro,NULL,write_something,asd
1582078639,29f5b743582ec9378c9469e42bc4a58b,Form,2,0,intro,NULL,credit,yes
1582078639,29f5b743582ec9378c9469e42bc4a58b,Form,2,0,intro,NULL,consent,yes
1582078639,29f5b743582ec9378c9469e42bc4a58b,Form,2,0,intro,NULL,sex,male
1582078639,29f5b743582ec9378c9469e42bc4a58b,Form,2,0,intro,NULL,_REACTION_TIME_,10378
# Columns below this comment are as follows:
# 1. Time results were received.
# 2. MD5 hash of participant's IP address.
# 3. Controller name.
# 4. Item number.
# 5. Element number.
# 6. Type.
# 7. Group.
# 8. Word number.
# 9. Word.
# 10. Reading time.
# 11. Newline?
# 12. Sentence (or sentence MD5).
1582078639,29f5b743582ec9378c9469e42bc4a58b,DashedSentence,3,0,practice,NULL,1,Bu,215,False,Bu pratik yapmanız için ilk cümle.
1582078639,29f5b743582ec9378c9469e42bc4a58b,DashedSentence,3,0,practice,NULL,2,pratik,208,False,Bu pratik yapmanız için ilk cümle.
1582078639,29f5b743582ec9378c9469e42bc4a58b,DashedSentence,3,0,practice,NULL,3,yapmanız,144,False,Bu pratik yapmanız için ilk cümle.
1582078639,29f5b743582ec9378c9469e42bc4a58b,DashedSentence,3,0,practice,NULL,4,için,184,False,Bu pratik yapmanız için ilk cümle.
1582078639,29f5b743582ec9378c9469e42bc4a58b,DashedSentence,3,0,practice,NULL,5,ilk,176,False,Bu pratik yapmanız için ilk cümle.
1582078639,29f5b743582ec9378c9469e42bc4a58b,DashedSentence,3,0,practice,NULL,6,cümle.,336,False,Bu pratik yapmanız için ilk cümle.
# The lines below this comment are in groups of 2.
# The formats of the lines in each of these groups are as follows:
#
# Line 1:
#     Col. 1: Time results were received.
#     Col. 2: MD5 hash of participant's IP address.
#     Col. 3: Controller name.
#     Col. 4: Item number.
#     Col. 5: Element number.
#     Col. 6: Type.
#     Col. 7: Group.
#     Col. 8: Question (NULL if none).
#     Col. 9: Answer.
#     Col. 10: Whether or not answer was correct (NULL if N/A).
#     Col. 11: Time taken to answer.
# Line 2:
#     Col. 1: Time results were received.
#     Col. 2: MD5 hash of participant's IP address.
#     Col. 3: Controller name.
#     Col. 4: Item number.
#     Col. 5: Element number.
#     Col. 6: Type.
#     Col. 7: Group.
#     Col. 8: Word number.
#     Col. 9: Word.
#     Col. 10: Reading time.
#     Col. 11: Newline?
#     Col. 12: Sentence (or sentence MD5).
1582078639,29f5b743582ec9378c9469e42bc4a58b,Question,3,1,practice,NULL,Pratik yapmak için ilk cümleydi.,Evet (Q'ya basınız),NULL,795
1582078639,29f5b743582ec9378c9469e42bc4a58b,DashedAcceptabilityJudgment,6,0,expSA_a,3,1,muhabir,328,False,muhabir ve görevliyi duyan bakan toplantıya tek başına gitti.
# Columns below this comment are as follows:
# 1. Time results were received.
# 2. MD5 hash of participant's IP address.
# 3. Controller name.
# 4. Item number.
# 5. Element number.
# 6. Type.
# 7. Group.
# 8. Word number.
# 9. Word.
# 10. Reading time.
# 11. Newline?
# 12. Sentence (or sentence MD5).
1582078639,29f5b743582ec9378c9469e42bc4a58b,DashedAcceptabilityJudgment,6,0,expSA_a,3,2,ve,352,False,muhabir ve görevliyi duyan bakan toplantıya tek başına gitti.
1582078639,29f5b743582ec9378c9469e42bc4a58b,DashedAcceptabilityJudgment,6,0,expSA_a,3,3,görevliyi,456,False,muhabir ve görevliyi duyan bakan toplantıya tek başına gitti.
1582078639,29f5b743582ec9378c9469e42bc4a58b,DashedAcceptabilityJudgment,6,0,expSA_a,3,4,duyan,400,False,muhabir ve görevliyi duyan bakan toplantıya tek başına gitti.
1582078639,29f5b743582ec9378c9469e42bc4a58b,DashedAcceptabilityJudgment,6,0,expSA_a,3,5,bakan,368,False,muhabir ve görevliyi duyan bakan toplantıya tek başına gitti.
1582078639,29f5b743582ec9378c9469e42bc4a58b,DashedAcceptabilityJudgment,6,0,expSA_a,3,6,toplantıya,400,False,muhabir ve görevliyi duyan bakan toplantıya tek başına gitti.
1582078639,29f5b743582ec9378c9469e42bc4a58b,DashedAcceptabilityJudgment,6,0,expSA_a,3,7,tek,432,False,muhabir ve görevliyi duyan bakan toplantıya tek başına gitti.
1582078639,29f5b743582ec9378c9469e42bc4a58b,DashedAcceptabilityJudgment,6,0,expSA_a,3,8,başına,384,False,muhabir ve görevliyi duyan bakan toplantıya tek başına gitti.
1582078639,29f5b743582ec9378c9469e42bc4a58b,DashedAcceptabilityJudgment,6,0,expSA_a,3,9,gitti.,400,False,muhabir ve görevliyi duyan bakan toplantıya tek başına gitti.
# The lines below this comment are in groups of 2.
# The formats of the lines in each of these groups are as follows:
#
# Line 1:
#     Col. 1: Time results were received.
#     Col. 2: MD5 hash of participant's IP address.
#     Col. 3: Controller name.
#     Col. 4: Item number.
#     Col. 5: Element number.
#     Col. 6: Type.
#     Col. 7: Group.
#     Col. 8: Question (NULL if none).
#     Col. 9: Answer.
#     Col. 10: Whether or not answer was correct (NULL if N/A).
#     Col. 11: Time taken to answer.
# Line 2:
#     Col. 1: Time results were received.
#     Col. 2: MD5 hash of participant's IP address.
#     Col. 3: Controller name.
#     Col. 4: Item number.
#     Col. 5: Element number.
#     Col. 6: Type.
#     Col. 7: Group.
#     Col. 8: Word number.
#     Col. 9: Word.
#     Col. 10: Reading time.
#     Col. 11: Newline?
#     Col. 12: Sentence (or sentence MD5).
1582078639,29f5b743582ec9378c9469e42bc4a58b,DashedAcceptabilityJudgment,6,0,expSA_a,3,Okuduğunuz cümle doğal mı?,Evet (Q'ya basınız),NULL,627
1582078639,29f5b743582ec9378c9469e42bc4a58b,DashedAcceptabilityJudgment,4,0,expSA_a,1,1,çocuk,401,False,@çocuk @ve @kadını @kurtaran @adam @eve tek @başına @geldi.
# Columns below this comment are as follows:
# 1. Time results were received.
# 2. MD5 hash of participant's IP address.
# 3. Controller name.
# 4. Item number.
# 5. Element number.
# 6. Type.
# 7. Group.
# 8. Word number.
# 9. Word.
# 10. Reading time.
# 11. Newline?
# 12. Sentence (or sentence MD5).
1582078639,29f5b743582ec9378c9469e42bc4a58b,DashedAcceptabilityJudgment,4,0,expSA_a,1,2,@ve,None,False,@çocuk @ve @kadını @kurtaran @adam @eve tek @başına @geldi.
1582078639,29f5b743582ec9378c9469e42bc4a58b,DashedAcceptabilityJudgment,4,0,expSA_a,1,3,@kadını,None,False,@çocuk @ve @kadını @kurtaran @adam @eve tek @başına @geldi.
1582078639,29f5b743582ec9378c9469e42bc4a58b,DashedAcceptabilityJudgment,4,0,expSA_a,1,4,@kurtaran,None,False,@çocuk @ve @kadını @kurtaran @adam @eve tek @başına @geldi.
1582078639,29f5b743582ec9378c9469e42bc4a58b,DashedAcceptabilityJudgment,4,0,expSA_a,1,5,@adam,None,False,@çocuk @ve @kadını @kurtaran @adam @eve tek @başına @geldi.
1582078639,29f5b743582ec9378c9469e42bc4a58b,DashedAcceptabilityJudgment,4,0,expSA_a,1,6,@eve,None,False,@çocuk @ve @kadını @kurtaran @adam @eve tek @başına @geldi.
1582078639,29f5b743582ec9378c9469e42bc4a58b,DashedAcceptabilityJudgment,4,0,expSA_a,1,7,tek,None,False,@çocuk @ve @kadını @kurtaran @adam @eve tek @başına @geldi.
1582078639,29f5b743582ec9378c9469e42bc4a58b,DashedAcceptabilityJudgment,4,0,expSA_a,1,8,@başına,None,False,@çocuk @ve @kadını @kurtaran @adam @eve tek @başına @geldi.
1582078639,29f5b743582ec9378c9469e42bc4a58b,DashedAcceptabilityJudgment,4,0,expSA_a,1,9,@geldi.,None,False,@çocuk @ve @kadını @kurtaran @adam @eve tek @başına @geldi.
# The lines below this comment are in groups of 2.
# The formats of the lines in each of these groups are as follows:
#
# Line 1:
#     Col. 1: Time results were received.
#     Col. 2: MD5 hash of participant's IP address.
#     Col. 3: Controller name.
#     Col. 4: Item number.
#     Col. 5: Element number.
#     Col. 6: Type.
#     Col. 7: Group.
#     Col. 8: Question (NULL if none).
#     Col. 9: Answer.
#     Col. 10: Whether or not answer was correct (NULL if N/A).
#     Col. 11: Time taken to answer.
# Line 2:
#     Col. 1: Time results were received.
#     Col. 2: MD5 hash of participant's IP address.
#     Col. 3: Controller name.
#     Col. 4: Item number.
#     Col. 5: Element number.
#     Col. 6: Type.
#     Col. 7: Group.
#     Col. 8: Word number.
#     Col. 9: Word.
#     Col. 10: Reading time.
#     Col. 11: Newline?
#     Col. 12: Sentence (or sentence MD5).
1582078639,29f5b743582ec9378c9469e42bc4a58b,DashedAcceptabilityJudgment,4,0,expSA_a,1,Okuduğunuz cümle doğal mı?,Evet (Q'ya basınız),NULL,6949
1582078639,29f5b743582ec9378c9469e42bc4a58b,DashedAcceptabilityJudgment,5,0,expSA_a,2,1,hemşire,376,False,hemşire ve hastayı gören doktor amliyata tek başına girdi.
# Columns below this comment are as follows:
# 1. Time results were received.
# 2. MD5 hash of participant's IP address.
# 3. Controller name.
# 4. Item number.
# 5. Element number.
# 6. Type.
# 7. Group.
# 8. Word number.
# 9. Word.
# 10. Reading time.
# 11. Newline?
# 12. Sentence (or sentence MD5).
1582078639,29f5b743582ec9378c9469e42bc4a58b,DashedAcceptabilityJudgment,5,0,expSA_a,2,2,ve,360,False,hemşire ve hastayı gören doktor amliyata tek başına girdi.
1582078639,29f5b743582ec9378c9469e42bc4a58b,DashedAcceptabilityJudgment,5,0,expSA_a,2,3,hastayı,272,False,hemşire ve hastayı gören doktor amliyata tek başına girdi.
1582078639,29f5b743582ec9378c9469e42bc4a58b,DashedAcceptabilityJudgment,5,0,expSA_a,2,4,gören,248,False,hemşire ve hastayı gören doktor amliyata tek başına girdi.
1582078639,29f5b743582ec9378c9469e42bc4a58b,DashedAcceptabilityJudgment,5,0,expSA_a,2,5,doktor,280,False,hemşire ve hastayı gören doktor amliyata tek başına girdi.
1582078639,29f5b743582ec9378c9469e42bc4a58b,DashedAcceptabilityJudgment,5,0,expSA_a,2,6,amliyata,320,False,hemşire ve hastayı gören doktor amliyata tek başına girdi.
1582078639,29f5b743582ec9378c9469e42bc4a58b,DashedAcceptabilityJudgment,5,0,expSA_a,2,7,tek,288,False,hemşire ve hastayı gören doktor amliyata tek başına girdi.
1582078639,29f5b743582ec9378c9469e42bc4a58b,DashedAcceptabilityJudgment,5,0,expSA_a,2,8,başına,312,False,hemşire ve hastayı gören doktor amliyata tek başına girdi.
1582078639,29f5b743582ec9378c9469e42bc4a58b,DashedAcceptabilityJudgment,5,0,expSA_a,2,9,girdi.,288,False,hemşire ve hastayı gören doktor amliyata tek başına girdi.
# Columns below this comment are as follows:
# 1. Time results were received.
# 2. MD5 hash of participant's IP address.
# 3. Controller name.
# 4. Item number.
# 5. Element number.
# 6. Type.
# 7. Group.
# 8. Question (NULL if none).
# 9. Answer.
# 10. Whether or not answer was correct (NULL if N/A).
# 11. Time taken to answer.
1582078639,29f5b743582ec9378c9469e42bc4a58b,DashedAcceptabilityJudgment,5,0,expSA_a,2,Okuduğunuz cümle doğal mı?,Evet (Q'ya basınız),NULL,685
#
# Results on Wednesday February 19 2020 02:20:40 UTC.
# USER AGENT: Mozilla/5.0 (X11; Linux x86_64) AppleWebKit/537.36 (KHTML, like Gecko) Chrome/80.0.3987.106 Safari/537.36
# Design number was non-random = 2
#
# Columns below this comment are as follows:
# 1. Time results were received.
# 2. MD5 hash of participant's IP address.
# 3. Controller name.
# 4. Item number.
# 5. Element number.
# 6. Type.
# 7. Group.
# 8. Field name.
# 9. Field value.
1582078841,29f5b743582ec9378c9469e42bc4a58b,Form,2,0,intro,NULL,name,Furkan
1582078841,29f5b743582ec9378c9469e42bc4a58b,Form,2,0,intro,NULL,age,24
1582078841,29f5b743582ec9378c9469e42bc4a58b,Form,2,0,intro,NULL,write_something,asdasd
1582078841,29f5b743582ec9378c9469e42bc4a58b,Form,2,0,intro,NULL,credit,yes
1582078841,29f5b743582ec9378c9469e42bc4a58b,Form,2,0,intro,NULL,consent,yes
1582078841,29f5b743582ec9378c9469e42bc4a58b,Form,2,0,intro,NULL,sex,male
1582078841,29f5b743582ec9378c9469e42bc4a58b,Form,2,0,intro,NULL,_REACTION_TIME_,7440
# Columns below this comment are as follows:
# 1. Time results were received.
# 2. MD5 hash of participant's IP address.
# 3. Controller name.
# 4. Item number.
# 5. Element number.
# 6. Type.
# 7. Group.
# 8. Word number.
# 9. Word.
# 10. Reading time.
# 11. Newline?
# 12. Sentence (or sentence MD5).
1582078841,29f5b743582ec9378c9469e42bc4a58b,DashedSentence,3,0,practice,NULL,1,Bu,207,False,Bu pratik yapmanız için ilk cümle.
1582078841,29f5b743582ec9378c9469e42bc4a58b,DashedSentence,3,0,practice,NULL,2,pratik,119,False,Bu pratik yapmanız için ilk cümle.
1582078841,29f5b743582ec9378c9469e42bc4a58b,DashedSentence,3,0,practice,NULL,3,yapmanız,185,False,Bu pratik yapmanız için ilk cümle.
1582078841,29f5b743582ec9378c9469e42bc4a58b,DashedSentence,3,0,practice,NULL,4,için,160,False,Bu pratik yapmanız için ilk cümle.
1582078841,29f5b743582ec9378c9469e42bc4a58b,DashedSentence,3,0,practice,NULL,5,ilk,168,False,Bu pratik yapmanız için ilk cümle.
1582078841,29f5b743582ec9378c9469e42bc4a58b,DashedSentence,3,0,practice,NULL,6,cümle.,448,False,Bu pratik yapmanız için ilk cümle.
# The lines below this comment are in groups of 2.
# The formats of the lines in each of these groups are as follows:
#
# Line 1:
#     Col. 1: Time results were received.
#     Col. 2: MD5 hash of participant's IP address.
#     Col. 3: Controller name.
#     Col. 4: Item number.
#     Col. 5: Element number.
#     Col. 6: Type.
#     Col. 7: Group.
#     Col. 8: Question (NULL if none).
#     Col. 9: Answer.
#     Col. 10: Whether or not answer was correct (NULL if N/A).
#     Col. 11: Time taken to answer.
# Line 2:
#     Col. 1: Time results were received.
#     Col. 2: MD5 hash of participant's IP address.
#     Col. 3: Controller name.
#     Col. 4: Item number.
#     Col. 5: Element number.
#     Col. 6: Type.
#     Col. 7: Group.
#     Col. 8: Word number.
#     Col. 9: Word.
#     Col. 10: Reading time.
#     Col. 11: Newline?
#     Col. 12: Sentence (or sentence MD5).
1582078841,29f5b743582ec9378c9469e42bc4a58b,Question,3,1,practice,NULL,Pratik yapmak için ilk cümleydi.,Evet (Q'ya basınız),NULL,211
1582078841,29f5b743582ec9378c9469e42bc4a58b,DashedAcceptabilityJudgment,4,0,expSA_a,1,1,çocuk,200,False,çocuk ve kadını kurtaran adam eve tek_başına geldi.
# Columns below this comment are as follows:
# 1. Time results were received.
# 2. MD5 hash of participant's IP address.
# 3. Controller name.
# 4. Item number.
# 5. Element number.
# 6. Type.
# 7. Group.
# 8. Word number.
# 9. Word.
# 10. Reading time.
# 11. Newline?
# 12. Sentence (or sentence MD5).
1582078841,29f5b743582ec9378c9469e42bc4a58b,DashedAcceptabilityJudgment,4,0,expSA_a,1,2,ve,200,False,çocuk ve kadını kurtaran adam eve tek_başına geldi.
1582078841,29f5b743582ec9378c9469e42bc4a58b,DashedAcceptabilityJudgment,4,0,expSA_a,1,3,kadını,192,False,çocuk ve kadını kurtaran adam eve tek_başına geldi.
1582078841,29f5b743582ec9378c9469e42bc4a58b,DashedAcceptabilityJudgment,4,0,expSA_a,1,4,kurtaran,216,False,çocuk ve kadını kurtaran adam eve tek_başına geldi.
1582078841,29f5b743582ec9378c9469e42bc4a58b,DashedAcceptabilityJudgment,4,0,expSA_a,1,5,adam,256,False,çocuk ve kadını kurtaran adam eve tek_başına geldi.
1582078841,29f5b743582ec9378c9469e42bc4a58b,DashedAcceptabilityJudgment,4,0,expSA_a,1,6,eve,256,False,çocuk ve kadını kurtaran adam eve tek_başına geldi.
1582078841,29f5b743582ec9378c9469e42bc4a58b,DashedAcceptabilityJudgment,4,0,expSA_a,1,7,tek başına,328,False,çocuk ve kadını kurtaran adam eve tek_başına geldi.
1582078841,29f5b743582ec9378c9469e42bc4a58b,DashedAcceptabilityJudgment,4,0,expSA_a,1,8,geldi.,1256,False,çocuk ve kadını kurtaran adam eve tek_başına geldi.
# The lines below this comment are in groups of 2.
# The formats of the lines in each of these groups are as follows:
#
# Line 1:
#     Col. 1: Time results were received.
#     Col. 2: MD5 hash of participant's IP address.
#     Col. 3: Controller name.
#     Col. 4: Item number.
#     Col. 5: Element number.
#     Col. 6: Type.
#     Col. 7: Group.
#     Col. 8: Question (NULL if none).
#     Col. 9: Answer.
#     Col. 10: Whether or not answer was correct (NULL if N/A).
#     Col. 11: Time taken to answer.
# Line 2:
#     Col. 1: Time results were received.
#     Col. 2: MD5 hash of participant's IP address.
#     Col. 3: Controller name.
#     Col. 4: Item number.
#     Col. 5: Element number.
#     Col. 6: Type.
#     Col. 7: Group.
#     Col. 8: Word number.
#     Col. 9: Word.
#     Col. 10: Reading time.
#     Col. 11: Newline?
#     Col. 12: Sentence (or sentence MD5).
1582078841,29f5b743582ec9378c9469e42bc4a58b,DashedAcceptabilityJudgment,4,0,expSA_a,1,Okuduğunuz cümle doğal mı?,Evet (Q'ya basınız),NULL,563
1582078841,29f5b743582ec9378c9469e42bc4a58b,DashedAcceptabilityJudgment,5,0,expSA_a,2,1,hemşire,344,False,hemşire ve hastayı gören doktor amliyata tek_başına girdi.
# Columns below this comment are as follows:
# 1. Time results were received.
# 2. MD5 hash of participant's IP address.
# 3. Controller name.
# 4. Item number.
# 5. Element number.
# 6. Type.
# 7. Group.
# 8. Word number.
# 9. Word.
# 10. Reading time.
# 11. Newline?
# 12. Sentence (or sentence MD5).
1582078841,29f5b743582ec9378c9469e42bc4a58b,DashedAcceptabilityJudgment,5,0,expSA_a,2,2,ve,321,False,hemşire ve hastayı gören doktor amliyata tek_başına girdi.
1582078841,29f5b743582ec9378c9469e42bc4a58b,DashedAcceptabilityJudgment,5,0,expSA_a,2,3,hastayı,343,False,hemşire ve hastayı gören doktor amliyata tek_başına girdi.
1582078841,29f5b743582ec9378c9469e42bc4a58b,DashedAcceptabilityJudgment,5,0,expSA_a,2,4,gören,376,False,hemşire ve hastayı gören doktor amliyata tek_başına girdi.
1582078841,29f5b743582ec9378c9469e42bc4a58b,DashedAcceptabilityJudgment,5,0,expSA_a,2,5,doktor,424,False,hemşire ve hastayı gören doktor amliyata tek_başına girdi.
1582078841,29f5b743582ec9378c9469e42bc4a58b,DashedAcceptabilityJudgment,5,0,expSA_a,2,6,amliyata,416,False,hemşire ve hastayı gören doktor amliyata tek_başına girdi.
1582078841,29f5b743582ec9378c9469e42bc4a58b,DashedAcceptabilityJudgment,5,0,expSA_a,2,7,tek başına,1536,False,hemşire ve hastayı gören doktor amliyata tek_başına girdi.
1582078841,29f5b743582ec9378c9469e42bc4a58b,DashedAcceptabilityJudgment,5,0,expSA_a,2,8,girdi.,336,False,hemşire ve hastayı gören doktor amliyata tek_başına girdi.
# The lines below this comment are in groups of 2.
# The formats of the lines in each of these groups are as follows:
#
# Line 1:
#     Col. 1: Time results were received.
#     Col. 2: MD5 hash of participant's IP address.
#     Col. 3: Controller name.
#     Col. 4: Item number.
#     Col. 5: Element number.
#     Col. 6: Type.
#     Col. 7: Group.
#     Col. 8: Question (NULL if none).
#     Col. 9: Answer.
#     Col. 10: Whether or not answer was correct (NULL if N/A).
#     Col. 11: Time taken to answer.
# Line 2:
#     Col. 1: Time results were received.
#     Col. 2: MD5 hash of participant's IP address.
#     Col. 3: Controller name.
#     Col. 4: Item number.
#     Col. 5: Element number.
#     Col. 6: Type.
#     Col. 7: Group.
#     Col. 8: Word number.
#     Col. 9: Word.
#     Col. 10: Reading time.
#     Col. 11: Newline?
#     Col. 12: Sentence (or sentence MD5).
1582078841,29f5b743582ec9378c9469e42bc4a58b,DashedAcceptabilityJudgment,5,0,expSA_a,2,Okuduğunuz cümle doğal mı?,Evet (Q'ya basınız),NULL,749
1582078841,29f5b743582ec9378c9469e42bc4a58b,DashedAcceptabilityJudgment,6,0,expSA_a,3,1,muhabir,152,False,muhabir ve görevliyi duyan bakan toplantıya tek_başına gitti.
# Columns below this comment are as follows:
# 1. Time results were received.
# 2. MD5 hash of participant's IP address.
# 3. Controller name.
# 4. Item number.
# 5. Element number.
# 6. Type.
# 7. Group.
# 8. Word number.
# 9. Word.
# 10. Reading time.
# 11. Newline?
# 12. Sentence (or sentence MD5).
1582078841,29f5b743582ec9378c9469e42bc4a58b,DashedAcceptabilityJudgment,6,0,expSA_a,3,2,ve,184,False,muhabir ve görevliyi duyan bakan toplantıya tek_başına gitti.
1582078841,29f5b743582ec9378c9469e42bc4a58b,DashedAcceptabilityJudgment,6,0,expSA_a,3,3,görevliyi,176,False,muhabir ve görevliyi duyan bakan toplantıya tek_başına gitti.
1582078841,29f5b743582ec9378c9469e42bc4a58b,DashedAcceptabilityJudgment,6,0,expSA_a,3,4,duyan,184,False,muhabir ve görevliyi duyan bakan toplantıya tek_başına gitti.
1582078841,29f5b743582ec9378c9469e42bc4a58b,DashedAcceptabilityJudgment,6,0,expSA_a,3,5,bakan,192,False,muhabir ve görevliyi duyan bakan toplantıya tek_başına gitti.
1582078841,29f5b743582ec9378c9469e42bc4a58b,DashedAcceptabilityJudgment,6,0,expSA_a,3,6,toplantıya,200,False,muhabir ve görevliyi duyan bakan toplantıya tek_başına gitti.
1582078841,29f5b743582ec9378c9469e42bc4a58b,DashedAcceptabilityJudgment,6,0,expSA_a,3,7,tek başına,200,False,muhabir ve görevliyi duyan bakan toplantıya tek_başına gitti.
1582078841,29f5b743582ec9378c9469e42bc4a58b,DashedAcceptabilityJudgment,6,0,expSA_a,3,8,gitti.,224,False,muhabir ve görevliyi duyan bakan toplantıya tek_başına gitti.
# Columns below this comment are as follows:
# 1. Time results were received.
# 2. MD5 hash of participant's IP address.
# 3. Controller name.
# 4. Item number.
# 5. Element number.
# 6. Type.
# 7. Group.
# 8. Question (NULL if none).
# 9. Answer.
# 10. Whether or not answer was correct (NULL if N/A).
# 11. Time taken to answer.
1582078841,29f5b743582ec9378c9469e42bc4a58b,DashedAcceptabilityJudgment,6,0,expSA_a,3,Okuduğunuz cümle doğal mı?,Evet (Q'ya basınız),NULL,685
#
# Results on Wednesday February 19 2020 02:20:42 UTC.
# USER AGENT: Mozilla/5.0 (X11; Linux x86_64) AppleWebKit/537.36 (KHTML, like Gecko) Chrome/80.0.3987.106 Safari/537.36
# Design number was non-random = 2
#
# Columns below this comment are as follows:
# 1. Time results were received.
# 2. MD5 hash of participant's IP address.
# 3. Controller name.
# 4. Item number.
# 5. Element number.
# 6. Type.
# 7. Group.
# 8. Field name.
# 9. Field value.
1582078842,29f5b743582ec9378c9469e42bc4a58b,Form,2,0,intro,NULL,name,Furkan
1582078842,29f5b743582ec9378c9469e42bc4a58b,Form,2,0,intro,NULL,age,24
1582078842,29f5b743582ec9378c9469e42bc4a58b,Form,2,0,intro,NULL,write_something,asdasd
1582078842,29f5b743582ec9378c9469e42bc4a58b,Form,2,0,intro,NULL,credit,yes
1582078842,29f5b743582ec9378c9469e42bc4a58b,Form,2,0,intro,NULL,consent,yes
1582078842,29f5b743582ec9378c9469e42bc4a58b,Form,2,0,intro,NULL,sex,male
1582078842,29f5b743582ec9378c9469e42bc4a58b,Form,2,0,intro,NULL,_REACTION_TIME_,7440
# Columns below this comment are as follows:
# 1. Time results were received.
# 2. MD5 hash of participant's IP address.
# 3. Controller name.
# 4. Item number.
# 5. Element number.
# 6. Type.
# 7. Group.
# 8. Word number.
# 9. Word.
# 10. Reading time.
# 11. Newline?
# 12. Sentence (or sentence MD5).
1582078842,29f5b743582ec9378c9469e42bc4a58b,DashedSentence,3,0,practice,NULL,1,Bu,207,False,Bu pratik yapmanız için ilk cümle.
1582078842,29f5b743582ec9378c9469e42bc4a58b,DashedSentence,3,0,practice,NULL,2,pratik,119,False,Bu pratik yapmanız için ilk cümle.
1582078842,29f5b743582ec9378c9469e42bc4a58b,DashedSentence,3,0,practice,NULL,3,yapmanız,185,False,Bu pratik yapmanız için ilk cümle.
1582078842,29f5b743582ec9378c9469e42bc4a58b,DashedSentence,3,0,practice,NULL,4,için,160,False,Bu pratik yapmanız için ilk cümle.
1582078842,29f5b743582ec9378c9469e42bc4a58b,DashedSentence,3,0,practice,NULL,5,ilk,168,False,Bu pratik yapmanız için ilk cümle.
1582078842,29f5b743582ec9378c9469e42bc4a58b,DashedSentence,3,0,practice,NULL,6,cümle.,448,False,Bu pratik yapmanız için ilk cümle.
# The lines below this comment are in groups of 2.
# The formats of the lines in each of these groups are as follows:
#
# Line 1:
#     Col. 1: Time results were received.
#     Col. 2: MD5 hash of participant's IP address.
#     Col. 3: Controller name.
#     Col. 4: Item number.
#     Col. 5: Element number.
#     Col. 6: Type.
#     Col. 7: Group.
#     Col. 8: Question (NULL if none).
#     Col. 9: Answer.
#     Col. 10: Whether or not answer was correct (NULL if N/A).
#     Col. 11: Time taken to answer.
# Line 2:
#     Col. 1: Time results were received.
#     Col. 2: MD5 hash of participant's IP address.
#     Col. 3: Controller name.
#     Col. 4: Item number.
#     Col. 5: Element number.
#     Col. 6: Type.
#     Col. 7: Group.
#     Col. 8: Word number.
#     Col. 9: Word.
#     Col. 10: Reading time.
#     Col. 11: Newline?
#     Col. 12: Sentence (or sentence MD5).
1582078842,29f5b743582ec9378c9469e42bc4a58b,Question,3,1,practice,NULL,Pratik yapmak için ilk cümleydi.,Evet (Q'ya basınız),NULL,211
1582078842,29f5b743582ec9378c9469e42bc4a58b,DashedAcceptabilityJudgment,4,0,expSA_a,1,1,çocuk,200,False,çocuk ve kadını kurtaran adam eve tek_başına geldi.
# Columns below this comment are as follows:
# 1. Time results were received.
# 2. MD5 hash of participant's IP address.
# 3. Controller name.
# 4. Item number.
# 5. Element number.
# 6. Type.
# 7. Group.
# 8. Word number.
# 9. Word.
# 10. Reading time.
# 11. Newline?
# 12. Sentence (or sentence MD5).
1582078842,29f5b743582ec9378c9469e42bc4a58b,DashedAcceptabilityJudgment,4,0,expSA_a,1,2,ve,200,False,çocuk ve kadını kurtaran adam eve tek_başına geldi.
1582078842,29f5b743582ec9378c9469e42bc4a58b,DashedAcceptabilityJudgment,4,0,expSA_a,1,3,kadını,192,False,çocuk ve kadını kurtaran adam eve tek_başına geldi.
1582078842,29f5b743582ec9378c9469e42bc4a58b,DashedAcceptabilityJudgment,4,0,expSA_a,1,4,kurtaran,216,False,çocuk ve kadını kurtaran adam eve tek_başına geldi.
1582078842,29f5b743582ec9378c9469e42bc4a58b,DashedAcceptabilityJudgment,4,0,expSA_a,1,5,adam,256,False,çocuk ve kadını kurtaran adam eve tek_başına geldi.
1582078842,29f5b743582ec9378c9469e42bc4a58b,DashedAcceptabilityJudgment,4,0,expSA_a,1,6,eve,256,False,çocuk ve kadını kurtaran adam eve tek_başına geldi.
1582078842,29f5b743582ec9378c9469e42bc4a58b,DashedAcceptabilityJudgment,4,0,expSA_a,1,7,tek başına,328,False,çocuk ve kadını kurtaran adam eve tek_başına geldi.
1582078842,29f5b743582ec9378c9469e42bc4a58b,DashedAcceptabilityJudgment,4,0,expSA_a,1,8,geldi.,1256,False,çocuk ve kadını kurtaran adam eve tek_başına geldi.
# The lines below this comment are in groups of 2.
# The formats of the lines in each of these groups are as follows:
#
# Line 1:
#     Col. 1: Time results were received.
#     Col. 2: MD5 hash of participant's IP address.
#     Col. 3: Controller name.
#     Col. 4: Item number.
#     Col. 5: Element number.
#     Col. 6: Type.
#     Col. 7: Group.
#     Col. 8: Question (NULL if none).
#     Col. 9: Answer.
#     Col. 10: Whether or not answer was correct (NULL if N/A).
#     Col. 11: Time taken to answer.
# Line 2:
#     Col. 1: Time results were received.
#     Col. 2: MD5 hash of participant's IP address.
#     Col. 3: Controller name.
#     Col. 4: Item number.
#     Col. 5: Element number.
#     Col. 6: Type.
#     Col. 7: Group.
#     Col. 8: Word number.
#     Col. 9: Word.
#     Col. 10: Reading time.
#     Col. 11: Newline?
#     Col. 12: Sentence (or sentence MD5).
1582078842,29f5b743582ec9378c9469e42bc4a58b,DashedAcceptabilityJudgment,4,0,expSA_a,1,Okuduğunuz cümle doğal mı?,Evet (Q'ya basınız),NULL,563
1582078842,29f5b743582ec9378c9469e42bc4a58b,DashedAcceptabilityJudgment,5,0,expSA_a,2,1,hemşire,344,False,hemşire ve hastayı gören doktor amliyata tek_başına girdi.
# Columns below this comment are as follows:
# 1. Time results were received.
# 2. MD5 hash of participant's IP address.
# 3. Controller name.
# 4. Item number.
# 5. Element number.
# 6. Type.
# 7. Group.
# 8. Word number.
# 9. Word.
# 10. Reading time.
# 11. Newline?
# 12. Sentence (or sentence MD5).
1582078842,29f5b743582ec9378c9469e42bc4a58b,DashedAcceptabilityJudgment,5,0,expSA_a,2,2,ve,321,False,hemşire ve hastayı gören doktor amliyata tek_başına girdi.
1582078842,29f5b743582ec9378c9469e42bc4a58b,DashedAcceptabilityJudgment,5,0,expSA_a,2,3,hastayı,343,False,hemşire ve hastayı gören doktor amliyata tek_başına girdi.
1582078842,29f5b743582ec9378c9469e42bc4a58b,DashedAcceptabilityJudgment,5,0,expSA_a,2,4,gören,376,False,hemşire ve hastayı gören doktor amliyata tek_başına girdi.
1582078842,29f5b743582ec9378c9469e42bc4a58b,DashedAcceptabilityJudgment,5,0,expSA_a,2,5,doktor,424,False,hemşire ve hastayı gören doktor amliyata tek_başına girdi.
1582078842,29f5b743582ec9378c9469e42bc4a58b,DashedAcceptabilityJudgment,5,0,expSA_a,2,6,amliyata,416,False,hemşire ve hastayı gören doktor amliyata tek_başına girdi.
1582078842,29f5b743582ec9378c9469e42bc4a58b,DashedAcceptabilityJudgment,5,0,expSA_a,2,7,tek başına,1536,False,hemşire ve hastayı gören doktor amliyata tek_başına girdi.
1582078842,29f5b743582ec9378c9469e42bc4a58b,DashedAcceptabilityJudgment,5,0,expSA_a,2,8,girdi.,336,False,hemşire ve hastayı gören doktor amliyata tek_başına girdi.
# The lines below this comment are in groups of 2.
# The formats of the lines in each of these groups are as follows:
#
# Line 1:
#     Col. 1: Time results were received.
#     Col. 2: MD5 hash of participant's IP address.
#     Col. 3: Controller name.
#     Col. 4: Item number.
#     Col. 5: Element number.
#     Col. 6: Type.
#     Col. 7: Group.
#     Col. 8: Question (NULL if none).
#     Col. 9: Answer.
#     Col. 10: Whether or not answer was correct (NULL if N/A).
#     Col. 11: Time taken to answer.
# Line 2:
#     Col. 1: Time results were received.
#     Col. 2: MD5 hash of participant's IP address.
#     Col. 3: Controller name.
#     Col. 4: Item number.
#     Col. 5: Element number.
#     Col. 6: Type.
#     Col. 7: Group.
#     Col. 8: Word number.
#     Col. 9: Word.
#     Col. 10: Reading time.
#     Col. 11: Newline?
#     Col. 12: Sentence (or sentence MD5).
1582078842,29f5b743582ec9378c9469e42bc4a58b,DashedAcceptabilityJudgment,5,0,expSA_a,2,Okuduğunuz cümle doğal mı?,Evet (Q'ya basınız),NULL,749
1582078842,29f5b743582ec9378c9469e42bc4a58b,DashedAcceptabilityJudgment,6,0,expSA_a,3,1,muhabir,152,False,muhabir ve görevliyi duyan bakan toplantıya tek_başına gitti.
# Columns below this comment are as follows:
# 1. Time results were received.
# 2. MD5 hash of participant's IP address.
# 3. Controller name.
# 4. Item number.
# 5. Element number.
# 6. Type.
# 7. Group.
# 8. Word number.
# 9. Word.
# 10. Reading time.
# 11. Newline?
# 12. Sentence (or sentence MD5).
1582078842,29f5b743582ec9378c9469e42bc4a58b,DashedAcceptabilityJudgment,6,0,expSA_a,3,2,ve,184,False,muhabir ve görevliyi duyan bakan toplantıya tek_başına gitti.
1582078842,29f5b743582ec9378c9469e42bc4a58b,DashedAcceptabilityJudgment,6,0,expSA_a,3,3,görevliyi,176,False,muhabir ve görevliyi duyan bakan toplantıya tek_başına gitti.
1582078842,29f5b743582ec9378c9469e42bc4a58b,DashedAcceptabilityJudgment,6,0,expSA_a,3,4,duyan,184,False,muhabir ve görevliyi duyan bakan toplantıya tek_başına gitti.
1582078842,29f5b743582ec9378c9469e42bc4a58b,DashedAcceptabilityJudgment,6,0,expSA_a,3,5,bakan,192,False,muhabir ve görevliyi duyan bakan toplantıya tek_başına gitti.
1582078842,29f5b743582ec9378c9469e42bc4a58b,DashedAcceptabilityJudgment,6,0,expSA_a,3,6,toplantıya,200,False,muhabir ve görevliyi duyan bakan toplantıya tek_başına gitti.
1582078842,29f5b743582ec9378c9469e42bc4a58b,DashedAcceptabilityJudgment,6,0,expSA_a,3,7,tek başına,200,False,muhabir ve görevliyi duyan bakan toplantıya tek_başına gitti.
1582078842,29f5b743582ec9378c9469e42bc4a58b,DashedAcceptabilityJudgment,6,0,expSA_a,3,8,gitti.,224,False,muhabir ve görevliyi duyan bakan toplantıya tek_başına gitti.
# Columns below this comment are as follows:
# 1. Time results were received.
# 2. MD5 hash of participant's IP address.
# 3. Controller name.
# 4. Item number.
# 5. Element number.
# 6. Type.
# 7. Group.
# 8. Question (NULL if none).
# 9. Answer.
# 10. Whether or not answer was correct (NULL if N/A).
# 11. Time taken to answer.
1582078842,29f5b743582ec9378c9469e42bc4a58b,DashedAcceptabilityJudgment,6,0,expSA_a,3,Okuduğunuz cümle doğal mı?,Evet (Q'ya basınız),NULL,685
#
# Results on Saturday February 22 2020 11:59:40 UTC.
# USER AGENT: Mozilla/5.0 (Windows NT 10.0; Win64; x64; rv:73.0) Gecko/20100101 Firefox/73.0
# Design number was non-random = 4
#
# Columns below this comment are as follows:
# 1. Time results were received.
# 2. MD5 hash of participant's IP address.
# 3. Controller name.
# 4. Item number.
# 5. Element number.
# 6. Type.
# 7. Group.
# 8. Field name.
# 9. Field value.
1582372780,54714d1695af79e64e9a8b5485501562,Form,2,0,intro,NULL,name,Utku Türk
1582372780,54714d1695af79e64e9a8b5485501562,Form,2,0,intro,NULL,age,20
1582372780,54714d1695af79e64e9a8b5485501562,Form,2,0,intro,NULL,credit,yes
1582372780,54714d1695af79e64e9a8b5485501562,Form,2,0,intro,NULL,consent,yes
1582372780,54714d1695af79e64e9a8b5485501562,Form,2,0,intro,NULL,_REACTION_TIME_,15536
# Columns below this comment are as follows:
# 1. Time results were received.
# 2. MD5 hash of participant's IP address.
# 3. Controller name.
# 4. Item number.
# 5. Element number.
# 6. Type.
# 7. Group.
# 8. Word number.
# 9. Word.
# 10. Reading time.
# 11. Newline?
# 12. Sentence (or sentence MD5).
1582372780,54714d1695af79e64e9a8b5485501562,DashedAcceptabilityJudgment,164,0,filler,102,1,Karmaşık,717,False,Karmaşık sokakta yalnız kalan çaresiz adam çok korktu.
1582372780,54714d1695af79e64e9a8b5485501562,DashedAcceptabilityJudgment,164,0,filler,102,2,sokakta,538,False,Karmaşık sokakta yalnız kalan çaresiz adam çok korktu.
1582372780,54714d1695af79e64e9a8b5485501562,DashedAcceptabilityJudgment,164,0,filler,102,3,yalnız,574,False,Karmaşık sokakta yalnız kalan çaresiz adam çok korktu.
1582372780,54714d1695af79e64e9a8b5485501562,DashedAcceptabilityJudgment,164,0,filler,102,4,kalan,555,False,Karmaşık sokakta yalnız kalan çaresiz adam çok korktu.
1582372780,54714d1695af79e64e9a8b5485501562,DashedAcceptabilityJudgment,164,0,filler,102,5,çaresiz,476,False,Karmaşık sokakta yalnız kalan çaresiz adam çok korktu.
1582372780,54714d1695af79e64e9a8b5485501562,DashedAcceptabilityJudgment,164,0,filler,102,6,adam,518,False,Karmaşık sokakta yalnız kalan çaresiz adam çok korktu.
1582372780,54714d1695af79e64e9a8b5485501562,DashedAcceptabilityJudgment,164,0,filler,102,7,çok,455,False,Karmaşık sokakta yalnız kalan çaresiz adam çok korktu.
1582372780,54714d1695af79e64e9a8b5485501562,DashedAcceptabilityJudgment,164,0,filler,102,8,korktu.,509,False,Karmaşık sokakta yalnız kalan çaresiz adam çok korktu.
# The lines below this comment are in groups of 2.
# The formats of the lines in each of these groups are as follows:
#
# Line 1:
#     Col. 1: Time results were received.
#     Col. 2: MD5 hash of participant's IP address.
#     Col. 3: Controller name.
#     Col. 4: Item number.
#     Col. 5: Element number.
#     Col. 6: Type.
#     Col. 7: Group.
#     Col. 8: Question (NULL if none).
#     Col. 9: Answer.
#     Col. 10: Whether or not answer was correct (NULL if N/A).
#     Col. 11: Time taken to answer.
# Line 2:
#     Col. 1: Time results were received.
#     Col. 2: MD5 hash of participant's IP address.
#     Col. 3: Controller name.
#     Col. 4: Item number.
#     Col. 5: Element number.
#     Col. 6: Type.
#     Col. 7: Group.
#     Col. 8: Word number.
#     Col. 9: Word.
#     Col. 10: Reading time.
#     Col. 11: Newline?
#     Col. 12: Sentence (or sentence MD5).
1582372780,54714d1695af79e64e9a8b5485501562,DashedAcceptabilityJudgment,164,0,filler,102,Okuduğunuz cümle doğal mı?,Evet (Q'ya basınız),NULL,3987
1582372780,54714d1695af79e64e9a8b5485501562,DashedAcceptabilityJudgment,183,0,filler,121,1,Dinlenmeksizin,547,False,Dinlenmeksizin çalışan işçiler çoktandır mola vermek için sabırsızlanıyor.
# Columns below this comment are as follows:
# 1. Time results were received.
# 2. MD5 hash of participant's IP address.
# 3. Controller name.
# 4. Item number.
# 5. Element number.
# 6. Type.
# 7. Group.
# 8. Word number.
# 9. Word.
# 10. Reading time.
# 11. Newline?
# 12. Sentence (or sentence MD5).
1582372780,54714d1695af79e64e9a8b5485501562,DashedAcceptabilityJudgment,183,0,filler,121,2,çalışan,744,False,Dinlenmeksizin çalışan işçiler çoktandır mola vermek için sabırsızlanıyor.
1582372780,54714d1695af79e64e9a8b5485501562,DashedAcceptabilityJudgment,183,0,filler,121,3,işçiler,482,False,Dinlenmeksizin çalışan işçiler çoktandır mola vermek için sabırsızlanıyor.
1582372780,54714d1695af79e64e9a8b5485501562,DashedAcceptabilityJudgment,183,0,filler,121,4,çoktandır,577,False,Dinlenmeksizin çalışan işçiler çoktandır mola vermek için sabırsızlanıyor.
1582372780,54714d1695af79e64e9a8b5485501562,DashedAcceptabilityJudgment,183,0,filler,121,5,mola,485,False,Dinlenmeksizin çalışan işçiler çoktandır mola vermek için sabırsızlanıyor.
1582372780,54714d1695af79e64e9a8b5485501562,DashedAcceptabilityJudgment,183,0,filler,121,6,vermek,576,False,Dinlenmeksizin çalışan işçiler çoktandır mola vermek için sabırsızlanıyor.
1582372780,54714d1695af79e64e9a8b5485501562,DashedAcceptabilityJudgment,183,0,filler,121,7,için,497,False,Dinlenmeksizin çalışan işçiler çoktandır mola vermek için sabırsızlanıyor.
1582372780,54714d1695af79e64e9a8b5485501562,DashedAcceptabilityJudgment,183,0,filler,121,8,sabırsızlanıyor.,773,False,Dinlenmeksizin çalışan işçiler çoktandır mola vermek için sabırsızlanıyor.
# The lines below this comment are in groups of 2.
# The formats of the lines in each of these groups are as follows:
#
# Line 1:
#     Col. 1: Time results were received.
#     Col. 2: MD5 hash of participant's IP address.
#     Col. 3: Controller name.
#     Col. 4: Item number.
#     Col. 5: Element number.
#     Col. 6: Type.
#     Col. 7: Group.
#     Col. 8: Question (NULL if none).
#     Col. 9: Answer.
#     Col. 10: Whether or not answer was correct (NULL if N/A).
#     Col. 11: Time taken to answer.
# Line 2:
#     Col. 1: Time results were received.
#     Col. 2: MD5 hash of participant's IP address.
#     Col. 3: Controller name.
#     Col. 4: Item number.
#     Col. 5: Element number.
#     Col. 6: Type.
#     Col. 7: Group.
#     Col. 8: Word number.
#     Col. 9: Word.
#     Col. 10: Reading time.
#     Col. 11: Newline?
#     Col. 12: Sentence (or sentence MD5).
1582372780,54714d1695af79e64e9a8b5485501562,DashedAcceptabilityJudgment,183,0,filler,121,Okuduğunuz cümle doğal mı?,Evet (Q'ya basınız),NULL,707
1582372780,54714d1695af79e64e9a8b5485501562,DashedAcceptabilityJudgment,68,0,expSA_b,26,1,Çiçekçi,470,False,Çiçekçi ve rehbere danışan turist hediyeyi beraber seçiyor
# Columns below this comment are as follows:
# 1. Time results were received.
# 2. MD5 hash of participant's IP address.
# 3. Controller name.
# 4. Item number.
# 5. Element number.
# 6. Type.
# 7. Group.
# 8. Word number.
# 9. Word.
# 10. Reading time.
# 11. Newline?
# 12. Sentence (or sentence MD5).
1582372780,54714d1695af79e64e9a8b5485501562,DashedAcceptabilityJudgment,68,0,expSA_b,26,2,ve,495,False,Çiçekçi ve rehbere danışan turist hediyeyi beraber seçiyor
1582372780,54714d1695af79e64e9a8b5485501562,DashedAcceptabilityJudgment,68,0,expSA_b,26,3,rehbere,540,False,Çiçekçi ve rehbere danışan turist hediyeyi beraber seçiyor
1582372780,54714d1695af79e64e9a8b5485501562,DashedAcceptabilityJudgment,68,0,expSA_b,26,4,danışan,582,False,Çiçekçi ve rehbere danışan turist hediyeyi beraber seçiyor
1582372780,54714d1695af79e64e9a8b5485501562,DashedAcceptabilityJudgment,68,0,expSA_b,26,5,turist,522,False,Çiçekçi ve rehbere danışan turist hediyeyi beraber seçiyor
1582372780,54714d1695af79e64e9a8b5485501562,DashedAcceptabilityJudgment,68,0,expSA_b,26,6,hediyeyi,577,False,Çiçekçi ve rehbere danışan turist hediyeyi beraber seçiyor
1582372780,54714d1695af79e64e9a8b5485501562,DashedAcceptabilityJudgment,68,0,expSA_b,26,7,beraber,621,False,Çiçekçi ve rehbere danışan turist hediyeyi beraber seçiyor
1582372780,54714d1695af79e64e9a8b5485501562,DashedAcceptabilityJudgment,68,0,expSA_b,26,8,seçiyor,2152,False,Çiçekçi ve rehbere danışan turist hediyeyi beraber seçiyor
# The lines below this comment are in groups of 2.
# The formats of the lines in each of these groups are as follows:
#
# Line 1:
#     Col. 1: Time results were received.
#     Col. 2: MD5 hash of participant's IP address.
#     Col. 3: Controller name.
#     Col. 4: Item number.
#     Col. 5: Element number.
#     Col. 6: Type.
#     Col. 7: Group.
#     Col. 8: Question (NULL if none).
#     Col. 9: Answer.
#     Col. 10: Whether or not answer was correct (NULL if N/A).
#     Col. 11: Time taken to answer.
# Line 2:
#     Col. 1: Time results were received.
#     Col. 2: MD5 hash of participant's IP address.
#     Col. 3: Controller name.
#     Col. 4: Item number.
#     Col. 5: Element number.
#     Col. 6: Type.
#     Col. 7: Group.
#     Col. 8: Word number.
#     Col. 9: Word.
#     Col. 10: Reading time.
#     Col. 11: Newline?
#     Col. 12: Sentence (or sentence MD5).
1582372780,54714d1695af79e64e9a8b5485501562,DashedAcceptabilityJudgment,68,0,expSA_b,26,Okuduğunuz cümle doğal mı?,Evet (Q'ya basınız),NULL,617
1582372780,54714d1695af79e64e9a8b5485501562,DashedAcceptabilityJudgment,174,0,filler,112,1,Arabasını,540,False,Arabasını alan ve işlerini bitiren adam gereğinden fazla yoruldu.
# Columns below this comment are as follows:
# 1. Time results were received.
# 2. MD5 hash of participant's IP address.
# 3. Controller name.
# 4. Item number.
# 5. Element number.
# 6. Type.
# 7. Group.
# 8. Word number.
# 9. Word.
# 10. Reading time.
# 11. Newline?
# 12. Sentence (or sentence MD5).
1582372780,54714d1695af79e64e9a8b5485501562,DashedAcceptabilityJudgment,174,0,filler,112,2,alan,551,False,Arabasını alan ve işlerini bitiren adam gereğinden fazla yoruldu.
1582372780,54714d1695af79e64e9a8b5485501562,DashedAcceptabilityJudgment,174,0,filler,112,3,ve,506,False,Arabasını alan ve işlerini bitiren adam gereğinden fazla yoruldu.
1582372780,54714d1695af79e64e9a8b5485501562,DashedAcceptabilityJudgment,174,0,filler,112,4,işlerini,490,False,Arabasını alan ve işlerini bitiren adam gereğinden fazla yoruldu.
1582372780,54714d1695af79e64e9a8b5485501562,DashedAcceptabilityJudgment,174,0,filler,112,5,bitiren,536,False,Arabasını alan ve işlerini bitiren adam gereğinden fazla yoruldu.
1582372780,54714d1695af79e64e9a8b5485501562,DashedAcceptabilityJudgment,174,0,filler,112,6,adam,690,False,Arabasını alan ve işlerini bitiren adam gereğinden fazla yoruldu.
1582372780,54714d1695af79e64e9a8b5485501562,DashedAcceptabilityJudgment,174,0,filler,112,7,gereğinden,1733,False,Arabasını alan ve işlerini bitiren adam gereğinden fazla yoruldu.
1582372780,54714d1695af79e64e9a8b5485501562,DashedAcceptabilityJudgment,174,0,filler,112,8,fazla,442,False,Arabasını alan ve işlerini bitiren adam gereğinden fazla yoruldu.
1582372780,54714d1695af79e64e9a8b5485501562,DashedAcceptabilityJudgment,174,0,filler,112,9,yoruldu.,653,False,Arabasını alan ve işlerini bitiren adam gereğinden fazla yoruldu.
# The lines below this comment are in groups of 2.
# The formats of the lines in each of these groups are as follows:
#
# Line 1:
#     Col. 1: Time results were received.
#     Col. 2: MD5 hash of participant's IP address.
#     Col. 3: Controller name.
#     Col. 4: Item number.
#     Col. 5: Element number.
#     Col. 6: Type.
#     Col. 7: Group.
#     Col. 8: Question (NULL if none).
#     Col. 9: Answer.
#     Col. 10: Whether or not answer was correct (NULL if N/A).
#     Col. 11: Time taken to answer.
# Line 2:
#     Col. 1: Time results were received.
#     Col. 2: MD5 hash of participant's IP address.
#     Col. 3: Controller name.
#     Col. 4: Item number.
#     Col. 5: Element number.
#     Col. 6: Type.
#     Col. 7: Group.
#     Col. 8: Word number.
#     Col. 9: Word.
#     Col. 10: Reading time.
#     Col. 11: Newline?
#     Col. 12: Sentence (or sentence MD5).
1582372780,54714d1695af79e64e9a8b5485501562,DashedAcceptabilityJudgment,174,0,filler,112,Okuduğunuz cümle doğal mı?,Evet (Q'ya basınız),NULL,437
1582372780,54714d1695af79e64e9a8b5485501562,DashedAcceptabilityJudgment,109,0,expSA_c,27,1,Matbaacı,558,False,Matbaacı ve özensiz teknisyene gücenen yayımcı baskıyı tek_başına erteledi.
# Columns below this comment are as follows:
# 1. Time results were received.
# 2. MD5 hash of participant's IP address.
# 3. Controller name.
# 4. Item number.
# 5. Element number.
# 6. Type.
# 7. Group.
# 8. Word number.
# 9. Word.
# 10. Reading time.
# 11. Newline?
# 12. Sentence (or sentence MD5).
1582372780,54714d1695af79e64e9a8b5485501562,DashedAcceptabilityJudgment,109,0,expSA_c,27,2,ve,486,False,Matbaacı ve özensiz teknisyene gücenen yayımcı baskıyı tek_başına erteledi.
1582372780,54714d1695af79e64e9a8b5485501562,DashedAcceptabilityJudgment,109,0,expSA_c,27,3,özensiz,531,False,Matbaacı ve özensiz teknisyene gücenen yayımcı baskıyı tek_başına erteledi.
1582372780,54714d1695af79e64e9a8b5485501562,DashedAcceptabilityJudgment,109,0,expSA_c,27,4,teknisyene,1915,False,Matbaacı ve özensiz teknisyene gücenen yayımcı baskıyı tek_başına erteledi.
1582372780,54714d1695af79e64e9a8b5485501562,DashedAcceptabilityJudgment,109,0,expSA_c,27,5,gücenen,1730,False,Matbaacı ve özensiz teknisyene gücenen yayımcı baskıyı tek_başına erteledi.
1582372780,54714d1695af79e64e9a8b5485501562,DashedAcceptabilityJudgment,109,0,expSA_c,27,6,yayımcı,704,False,Matbaacı ve özensiz teknisyene gücenen yayımcı baskıyı tek_başına erteledi.
1582372780,54714d1695af79e64e9a8b5485501562,DashedAcceptabilityJudgment,109,0,expSA_c,27,7,baskıyı,1240,False,Matbaacı ve özensiz teknisyene gücenen yayımcı baskıyı tek_başına erteledi.
1582372780,54714d1695af79e64e9a8b5485501562,DashedAcceptabilityJudgment,109,0,expSA_c,27,8,tek başına,647,False,Matbaacı ve özensiz teknisyene gücenen yayımcı baskıyı tek_başına erteledi.
1582372780,54714d1695af79e64e9a8b5485501562,DashedAcceptabilityJudgment,109,0,expSA_c,27,9,erteledi.,1008,False,Matbaacı ve özensiz teknisyene gücenen yayımcı baskıyı tek_başına erteledi.
# The lines below this comment are in groups of 2.
# The formats of the lines in each of these groups are as follows:
#
# Line 1:
#     Col. 1: Time results were received.
#     Col. 2: MD5 hash of participant's IP address.
#     Col. 3: Controller name.
#     Col. 4: Item number.
#     Col. 5: Element number.
#     Col. 6: Type.
#     Col. 7: Group.
#     Col. 8: Question (NULL if none).
#     Col. 9: Answer.
#     Col. 10: Whether or not answer was correct (NULL if N/A).
#     Col. 11: Time taken to answer.
# Line 2:
#     Col. 1: Time results were received.
#     Col. 2: MD5 hash of participant's IP address.
#     Col. 3: Controller name.
#     Col. 4: Item number.
#     Col. 5: Element number.
#     Col. 6: Type.
#     Col. 7: Group.
#     Col. 8: Word number.
#     Col. 9: Word.
#     Col. 10: Reading time.
#     Col. 11: Newline?
#     Col. 12: Sentence (or sentence MD5).
1582372780,54714d1695af79e64e9a8b5485501562,DashedAcceptabilityJudgment,109,0,expSA_c,27,Okuduğunuz cümle doğal mı?,Hayır (P'ye basınız),NULL,5954
1582372780,54714d1695af79e64e9a8b5485501562,DashedAcceptabilityJudgment,165,0,filler,103,1,Kitabını,396,False,Kitabını ve defterini unutan çocuk okula geç geldi.
# Columns below this comment are as follows:
# 1. Time results were received.
# 2. MD5 hash of participant's IP address.
# 3. Controller name.
# 4. Item number.
# 5. Element number.
# 6. Type.
# 7. Group.
# 8. Word number.
# 9. Word.
# 10. Reading time.
# 11. Newline?
# 12. Sentence (or sentence MD5).
1582372780,54714d1695af79e64e9a8b5485501562,DashedAcceptabilityJudgment,165,0,filler,103,2,ve,433,False,Kitabını ve defterini unutan çocuk okula geç geldi.
1582372780,54714d1695af79e64e9a8b5485501562,DashedAcceptabilityJudgment,165,0,filler,103,3,defterini,463,False,Kitabını ve defterini unutan çocuk okula geç geldi.
1582372780,54714d1695af79e64e9a8b5485501562,DashedAcceptabilityJudgment,165,0,filler,103,4,unutan,465,False,Kitabını ve defterini unutan çocuk okula geç geldi.
1582372780,54714d1695af79e64e9a8b5485501562,DashedAcceptabilityJudgment,165,0,filler,103,5,çocuk,519,False,Kitabını ve defterini unutan çocuk okula geç geldi.
1582372780,54714d1695af79e64e9a8b5485501562,DashedAcceptabilityJudgment,165,0,filler,103,6,okula,615,False,Kitabını ve defterini unutan çocuk okula geç geldi.
1582372780,54714d1695af79e64e9a8b5485501562,DashedAcceptabilityJudgment,165,0,filler,103,7,geç,502,False,Kitabını ve defterini unutan çocuk okula geç geldi.
1582372780,54714d1695af79e64e9a8b5485501562,DashedAcceptabilityJudgment,165,0,filler,103,8,geldi.,600,False,Kitabını ve defterini unutan çocuk okula geç geldi.
# The lines below this comment are in groups of 2.
# The formats of the lines in each of these groups are as follows:
#
# Line 1:
#     Col. 1: Time results were received.
#     Col. 2: MD5 hash of participant's IP address.
#     Col. 3: Controller name.
#     Col. 4: Item number.
#     Col. 5: Element number.
#     Col. 6: Type.
#     Col. 7: Group.
#     Col. 8: Question (NULL if none).
#     Col. 9: Answer.
#     Col. 10: Whether or not answer was correct (NULL if N/A).
#     Col. 11: Time taken to answer.
# Line 2:
#     Col. 1: Time results were received.
#     Col. 2: MD5 hash of participant's IP address.
#     Col. 3: Controller name.
#     Col. 4: Item number.
#     Col. 5: Element number.
#     Col. 6: Type.
#     Col. 7: Group.
#     Col. 8: Word number.
#     Col. 9: Word.
#     Col. 10: Reading time.
#     Col. 11: Newline?
#     Col. 12: Sentence (or sentence MD5).
1582372780,54714d1695af79e64e9a8b5485501562,DashedAcceptabilityJudgment,165,0,filler,103,Okuduğunuz cümle doğal mı?,Evet (Q'ya basınız),NULL,1927
1582372780,54714d1695af79e64e9a8b5485501562,DashedAcceptabilityJudgment,56,0,expSA_b,14,1,Şehzade,446,False,Şehzade ve veziri dinleyen padişah otağdan beraber ayrıldı.
# Columns below this comment are as follows:
# 1. Time results were received.
# 2. MD5 hash of participant's IP address.
# 3. Controller name.
# 4. Item number.
# 5. Element number.
# 6. Type.
# 7. Group.
# 8. Word number.
# 9. Word.
# 10. Reading time.
# 11. Newline?
# 12. Sentence (or sentence MD5).
1582372780,54714d1695af79e64e9a8b5485501562,DashedAcceptabilityJudgment,56,0,expSA_b,14,2,ve,438,False,Şehzade ve veziri dinleyen padişah otağdan beraber ayrıldı.
1582372780,54714d1695af79e64e9a8b5485501562,DashedAcceptabilityJudgment,56,0,expSA_b,14,3,veziri,416,False,Şehzade ve veziri dinleyen padişah otağdan beraber ayrıldı.
1582372780,54714d1695af79e64e9a8b5485501562,DashedAcceptabilityJudgment,56,0,expSA_b,14,4,dinleyen,426,False,Şehzade ve veziri dinleyen padişah otağdan beraber ayrıldı.
1582372780,54714d1695af79e64e9a8b5485501562,DashedAcceptabilityJudgment,56,0,expSA_b,14,5,padişah,462,False,Şehzade ve veziri dinleyen padişah otağdan beraber ayrıldı.
1582372780,54714d1695af79e64e9a8b5485501562,DashedAcceptabilityJudgment,56,0,expSA_b,14,6,otağdan,562,False,Şehzade ve veziri dinleyen padişah otağdan beraber ayrıldı.
1582372780,54714d1695af79e64e9a8b5485501562,DashedAcceptabilityJudgment,56,0,expSA_b,14,7,beraber,670,False,Şehzade ve veziri dinleyen padişah otağdan beraber ayrıldı.
1582372780,54714d1695af79e64e9a8b5485501562,DashedAcceptabilityJudgment,56,0,expSA_b,14,8,ayrıldı.,628,False,Şehzade ve veziri dinleyen padişah otağdan beraber ayrıldı.
# The lines below this comment are in groups of 2.
# The formats of the lines in each of these groups are as follows:
#
# Line 1:
#     Col. 1: Time results were received.
#     Col. 2: MD5 hash of participant's IP address.
#     Col. 3: Controller name.
#     Col. 4: Item number.
#     Col. 5: Element number.
#     Col. 6: Type.
#     Col. 7: Group.
#     Col. 8: Question (NULL if none).
#     Col. 9: Answer.
#     Col. 10: Whether or not answer was correct (NULL if N/A).
#     Col. 11: Time taken to answer.
# Line 2:
#     Col. 1: Time results were received.
#     Col. 2: MD5 hash of participant's IP address.
#     Col. 3: Controller name.
#     Col. 4: Item number.
#     Col. 5: Element number.
#     Col. 6: Type.
#     Col. 7: Group.
#     Col. 8: Word number.
#     Col. 9: Word.
#     Col. 10: Reading time.
#     Col. 11: Newline?
#     Col. 12: Sentence (or sentence MD5).
1582372780,54714d1695af79e64e9a8b5485501562,DashedAcceptabilityJudgment,56,0,expSA_b,14,Okuduğunuz cümle doğal mı?,Evet (Q'ya basınız),NULL,2084
1582372780,54714d1695af79e64e9a8b5485501562,DashedAcceptabilityJudgment,175,0,filler,113,1,Defterleriyle,457,False,Defterleriyle kalemlerini evde unutan küçük çocuk durmadan ağladı.
# Columns below this comment are as follows:
# 1. Time results were received.
# 2. MD5 hash of participant's IP address.
# 3. Controller name.
# 4. Item number.
# 5. Element number.
# 6. Type.
# 7. Group.
# 8. Word number.
# 9. Word.
# 10. Reading time.
# 11. Newline?
# 12. Sentence (or sentence MD5).
1582372780,54714d1695af79e64e9a8b5485501562,DashedAcceptabilityJudgment,175,0,filler,113,2,kalemlerini,498,False,Defterleriyle kalemlerini evde unutan küçük çocuk durmadan ağladı.
1582372780,54714d1695af79e64e9a8b5485501562,DashedAcceptabilityJudgment,175,0,filler,113,3,evde,471,False,Defterleriyle kalemlerini evde unutan küçük çocuk durmadan ağladı.
1582372780,54714d1695af79e64e9a8b5485501562,DashedAcceptabilityJudgment,175,0,filler,113,4,unutan,490,False,Defterleriyle kalemlerini evde unutan küçük çocuk durmadan ağladı.
1582372780,54714d1695af79e64e9a8b5485501562,DashedAcceptabilityJudgment,175,0,filler,113,5,küçük,514,False,Defterleriyle kalemlerini evde unutan küçük çocuk durmadan ağladı.
1582372780,54714d1695af79e64e9a8b5485501562,DashedAcceptabilityJudgment,175,0,filler,113,6,çocuk,564,False,Defterleriyle kalemlerini evde unutan küçük çocuk durmadan ağladı.
1582372780,54714d1695af79e64e9a8b5485501562,DashedAcceptabilityJudgment,175,0,filler,113,7,durmadan,520,False,Defterleriyle kalemlerini evde unutan küçük çocuk durmadan ağladı.
1582372780,54714d1695af79e64e9a8b5485501562,DashedAcceptabilityJudgment,175,0,filler,113,8,ağladı.,472,False,Defterleriyle kalemlerini evde unutan küçük çocuk durmadan ağladı.
# The lines below this comment are in groups of 2.
# The formats of the lines in each of these groups are as follows:
#
# Line 1:
#     Col. 1: Time results were received.
#     Col. 2: MD5 hash of participant's IP address.
#     Col. 3: Controller name.
#     Col. 4: Item number.
#     Col. 5: Element number.
#     Col. 6: Type.
#     Col. 7: Group.
#     Col. 8: Question (NULL if none).
#     Col. 9: Answer.
#     Col. 10: Whether or not answer was correct (NULL if N/A).
#     Col. 11: Time taken to answer.
# Line 2:
#     Col. 1: Time results were received.
#     Col. 2: MD5 hash of participant's IP address.
#     Col. 3: Controller name.
#     Col. 4: Item number.
#     Col. 5: Element number.
#     Col. 6: Type.
#     Col. 7: Group.
#     Col. 8: Word number.
#     Col. 9: Word.
#     Col. 10: Reading time.
#     Col. 11: Newline?
#     Col. 12: Sentence (or sentence MD5).
1582372780,54714d1695af79e64e9a8b5485501562,DashedAcceptabilityJudgment,175,0,filler,113,Okuduğunuz cümle doğal mı?,Evet (Q'ya basınız),NULL,406
1582372780,54714d1695af79e64e9a8b5485501562,DashedAcceptabilityJudgment,101,0,expSA_c,19,1,Müzisyen,472,False,Müzisyen ve alımlı modele yaklaşan aktör duyuruyu tek_başına okuyacak.
# Columns below this comment are as follows:
# 1. Time results were received.
# 2. MD5 hash of participant's IP address.
# 3. Controller name.
# 4. Item number.
# 5. Element number.
# 6. Type.
# 7. Group.
# 8. Word number.
# 9. Word.
# 10. Reading time.
# 11. Newline?
# 12. Sentence (or sentence MD5).
1582372780,54714d1695af79e64e9a8b5485501562,DashedAcceptabilityJudgment,101,0,expSA_c,19,2,ve,419,False,Müzisyen ve alımlı modele yaklaşan aktör duyuruyu tek_başına okuyacak.
1582372780,54714d1695af79e64e9a8b5485501562,DashedAcceptabilityJudgment,101,0,expSA_c,19,3,alımlı,349,False,Müzisyen ve alımlı modele yaklaşan aktör duyuruyu tek_başına okuyacak.
1582372780,54714d1695af79e64e9a8b5485501562,DashedAcceptabilityJudgment,101,0,expSA_c,19,4,modele,381,False,Müzisyen ve alımlı modele yaklaşan aktör duyuruyu tek_başına okuyacak.
1582372780,54714d1695af79e64e9a8b5485501562,DashedAcceptabilityJudgment,101,0,expSA_c,19,5,yaklaşan,387,False,Müzisyen ve alımlı modele yaklaşan aktör duyuruyu tek_başına okuyacak.
1582372780,54714d1695af79e64e9a8b5485501562,DashedAcceptabilityJudgment,101,0,expSA_c,19,6,aktör,393,False,Müzisyen ve alımlı modele yaklaşan aktör duyuruyu tek_başına okuyacak.
1582372780,54714d1695af79e64e9a8b5485501562,DashedAcceptabilityJudgment,101,0,expSA_c,19,7,duyuruyu,443,False,Müzisyen ve alımlı modele yaklaşan aktör duyuruyu tek_başına okuyacak.
1582372780,54714d1695af79e64e9a8b5485501562,DashedAcceptabilityJudgment,101,0,expSA_c,19,8,tek başına,551,False,Müzisyen ve alımlı modele yaklaşan aktör duyuruyu tek_başına okuyacak.
1582372780,54714d1695af79e64e9a8b5485501562,DashedAcceptabilityJudgment,101,0,expSA_c,19,9,okuyacak.,1468,False,Müzisyen ve alımlı modele yaklaşan aktör duyuruyu tek_başına okuyacak.
# The lines below this comment are in groups of 2.
# The formats of the lines in each of these groups are as follows:
#
# Line 1:
#     Col. 1: Time results were received.
#     Col. 2: MD5 hash of participant's IP address.
#     Col. 3: Controller name.
#     Col. 4: Item number.
#     Col. 5: Element number.
#     Col. 6: Type.
#     Col. 7: Group.
#     Col. 8: Question (NULL if none).
#     Col. 9: Answer.
#     Col. 10: Whether or not answer was correct (NULL if N/A).
#     Col. 11: Time taken to answer.
# Line 2:
#     Col. 1: Time results were received.
#     Col. 2: MD5 hash of participant's IP address.
#     Col. 3: Controller name.
#     Col. 4: Item number.
#     Col. 5: Element number.
#     Col. 6: Type.
#     Col. 7: Group.
#     Col. 8: Word number.
#     Col. 9: Word.
#     Col. 10: Reading time.
#     Col. 11: Newline?
#     Col. 12: Sentence (or sentence MD5).
1582372780,54714d1695af79e64e9a8b5485501562,DashedAcceptabilityJudgment,101,0,expSA_c,19,Okuduğunuz cümle doğal mı?,Evet (Q'ya basınız),NULL,213
1582372780,54714d1695af79e64e9a8b5485501562,DashedAcceptabilityJudgment,179,0,filler,117,1,Pistte,436,False,Pistte kalan lastikler uçağın kaza yapmasına sebep olmuş.
# Columns below this comment are as follows:
# 1. Time results were received.
# 2. MD5 hash of participant's IP address.
# 3. Controller name.
# 4. Item number.
# 5. Element number.
# 6. Type.
# 7. Group.
# 8. Word number.
# 9. Word.
# 10. Reading time.
# 11. Newline?
# 12. Sentence (or sentence MD5).
1582372780,54714d1695af79e64e9a8b5485501562,DashedAcceptabilityJudgment,179,0,filler,117,2,kalan,472,False,Pistte kalan lastikler uçağın kaza yapmasına sebep olmuş.
1582372780,54714d1695af79e64e9a8b5485501562,DashedAcceptabilityJudgment,179,0,filler,117,3,lastikler,458,False,Pistte kalan lastikler uçağın kaza yapmasına sebep olmuş.
1582372780,54714d1695af79e64e9a8b5485501562,DashedAcceptabilityJudgment,179,0,filler,117,4,uçağın,459,False,Pistte kalan lastikler uçağın kaza yapmasına sebep olmuş.
1582372780,54714d1695af79e64e9a8b5485501562,DashedAcceptabilityJudgment,179,0,filler,117,5,kaza,410,False,Pistte kalan lastikler uçağın kaza yapmasına sebep olmuş.
1582372780,54714d1695af79e64e9a8b5485501562,DashedAcceptabilityJudgment,179,0,filler,117,6,yapmasına,375,False,Pistte kalan lastikler uçağın kaza yapmasına sebep olmuş.
1582372780,54714d1695af79e64e9a8b5485501562,DashedAcceptabilityJudgment,179,0,filler,117,7,sebep,376,False,Pistte kalan lastikler uçağın kaza yapmasına sebep olmuş.
1582372780,54714d1695af79e64e9a8b5485501562,DashedAcceptabilityJudgment,179,0,filler,117,8,olmuş.,374,False,Pistte kalan lastikler uçağın kaza yapmasına sebep olmuş.
# The lines below this comment are in groups of 2.
# The formats of the lines in each of these groups are as follows:
#
# Line 1:
#     Col. 1: Time results were received.
#     Col. 2: MD5 hash of participant's IP address.
#     Col. 3: Controller name.
#     Col. 4: Item number.
#     Col. 5: Element number.
#     Col. 6: Type.
#     Col. 7: Group.
#     Col. 8: Question (NULL if none).
#     Col. 9: Answer.
#     Col. 10: Whether or not answer was correct (NULL if N/A).
#     Col. 11: Time taken to answer.
# Line 2:
#     Col. 1: Time results were received.
#     Col. 2: MD5 hash of participant's IP address.
#     Col. 3: Controller name.
#     Col. 4: Item number.
#     Col. 5: Element number.
#     Col. 6: Type.
#     Col. 7: Group.
#     Col. 8: Word number.
#     Col. 9: Word.
#     Col. 10: Reading time.
#     Col. 11: Newline?
#     Col. 12: Sentence (or sentence MD5).
1582372780,54714d1695af79e64e9a8b5485501562,DashedAcceptabilityJudgment,179,0,filler,117,Okuduğunuz cümle doğal mı?,Evet (Q'ya basınız),NULL,563
1582372780,54714d1695af79e64e9a8b5485501562,DashedAcceptabilityJudgment,64,0,expSA_b,22,1,Fotoğrafçı,446,False,Fotoğrafçı ve berbere bağıran gözlükçü kahveyi beraber işletecek.
# Columns below this comment are as follows:
# 1. Time results were received.
# 2. MD5 hash of participant's IP address.
# 3. Controller name.
# 4. Item number.
# 5. Element number.
# 6. Type.
# 7. Group.
# 8. Word number.
# 9. Word.
# 10. Reading time.
# 11. Newline?
# 12. Sentence (or sentence MD5).
1582372780,54714d1695af79e64e9a8b5485501562,DashedAcceptabilityJudgment,64,0,expSA_b,22,2,ve,392,False,Fotoğrafçı ve berbere bağıran gözlükçü kahveyi beraber işletecek.
1582372780,54714d1695af79e64e9a8b5485501562,DashedAcceptabilityJudgment,64,0,expSA_b,22,3,berbere,381,False,Fotoğrafçı ve berbere bağıran gözlükçü kahveyi beraber işletecek.
1582372780,54714d1695af79e64e9a8b5485501562,DashedAcceptabilityJudgment,64,0,expSA_b,22,4,bağıran,431,False,Fotoğrafçı ve berbere bağıran gözlükçü kahveyi beraber işletecek.
1582372780,54714d1695af79e64e9a8b5485501562,DashedAcceptabilityJudgment,64,0,expSA_b,22,5,gözlükçü,475,False,Fotoğrafçı ve berbere bağıran gözlükçü kahveyi beraber işletecek.
1582372780,54714d1695af79e64e9a8b5485501562,DashedAcceptabilityJudgment,64,0,expSA_b,22,6,kahveyi,592,False,Fotoğrafçı ve berbere bağıran gözlükçü kahveyi beraber işletecek.
1582372780,54714d1695af79e64e9a8b5485501562,DashedAcceptabilityJudgment,64,0,expSA_b,22,7,beraber,759,False,Fotoğrafçı ve berbere bağıran gözlükçü kahveyi beraber işletecek.
1582372780,54714d1695af79e64e9a8b5485501562,DashedAcceptabilityJudgment,64,0,expSA_b,22,8,işletecek.,962,False,Fotoğrafçı ve berbere bağıran gözlükçü kahveyi beraber işletecek.
# The lines below this comment are in groups of 2.
# The formats of the lines in each of these groups are as follows:
#
# Line 1:
#     Col. 1: Time results were received.
#     Col. 2: MD5 hash of participant's IP address.
#     Col. 3: Controller name.
#     Col. 4: Item number.
#     Col. 5: Element number.
#     Col. 6: Type.
#     Col. 7: Group.
#     Col. 8: Question (NULL if none).
#     Col. 9: Answer.
#     Col. 10: Whether or not answer was correct (NULL if N/A).
#     Col. 11: Time taken to answer.
# Line 2:
#     Col. 1: Time results were received.
#     Col. 2: MD5 hash of participant's IP address.
#     Col. 3: Controller name.
#     Col. 4: Item number.
#     Col. 5: Element number.
#     Col. 6: Type.
#     Col. 7: Group.
#     Col. 8: Word number.
#     Col. 9: Word.
#     Col. 10: Reading time.
#     Col. 11: Newline?
#     Col. 12: Sentence (or sentence MD5).
1582372780,54714d1695af79e64e9a8b5485501562,DashedAcceptabilityJudgment,64,0,expSA_b,22,Okuduğunuz cümle doğal mı?,Hayır (P'ye basınız),NULL,1302
1582372780,54714d1695af79e64e9a8b5485501562,DashedAcceptabilityJudgment,196,0,filler,134,1,Projeye,501,False,Projeye dahil edilen konuları not almak en öncelikli işimiz.
# Columns below this comment are as follows:
# 1. Time results were received.
# 2. MD5 hash of participant's IP address.
# 3. Controller name.
# 4. Item number.
# 5. Element number.
# 6. Type.
# 7. Group.
# 8. Word number.
# 9. Word.
# 10. Reading time.
# 11. Newline?
# 12. Sentence (or sentence MD5).
1582372780,54714d1695af79e64e9a8b5485501562,DashedAcceptabilityJudgment,196,0,filler,134,2,dahil,448,False,Projeye dahil edilen konuları not almak en öncelikli işimiz.
1582372780,54714d1695af79e64e9a8b5485501562,DashedAcceptabilityJudgment,196,0,filler,134,3,edilen,440,False,Projeye dahil edilen konuları not almak en öncelikli işimiz.
1582372780,54714d1695af79e64e9a8b5485501562,DashedAcceptabilityJudgment,196,0,filler,134,4,konuları,416,False,Projeye dahil edilen konuları not almak en öncelikli işimiz.
1582372780,54714d1695af79e64e9a8b5485501562,DashedAcceptabilityJudgment,196,0,filler,134,5,not,414,False,Projeye dahil edilen konuları not almak en öncelikli işimiz.
1582372780,54714d1695af79e64e9a8b5485501562,DashedAcceptabilityJudgment,196,0,filler,134,6,almak,374,False,Projeye dahil edilen konuları not almak en öncelikli işimiz.
1582372780,54714d1695af79e64e9a8b5485501562,DashedAcceptabilityJudgment,196,0,filler,134,7,en,417,False,Projeye dahil edilen konuları not almak en öncelikli işimiz.
1582372780,54714d1695af79e64e9a8b5485501562,DashedAcceptabilityJudgment,196,0,filler,134,8,öncelikli,357,False,Projeye dahil edilen konuları not almak en öncelikli işimiz.
1582372780,54714d1695af79e64e9a8b5485501562,DashedAcceptabilityJudgment,196,0,filler,134,9,işimiz.,395,False,Projeye dahil edilen konuları not almak en öncelikli işimiz.
# The lines below this comment are in groups of 2.
# The formats of the lines in each of these groups are as follows:
#
# Line 1:
#     Col. 1: Time results were received.
#     Col. 2: MD5 hash of participant's IP address.
#     Col. 3: Controller name.
#     Col. 4: Item number.
#     Col. 5: Element number.
#     Col. 6: Type.
#     Col. 7: Group.
#     Col. 8: Question (NULL if none).
#     Col. 9: Answer.
#     Col. 10: Whether or not answer was correct (NULL if N/A).
#     Col. 11: Time taken to answer.
# Line 2:
#     Col. 1: Time results were received.
#     Col. 2: MD5 hash of participant's IP address.
#     Col. 3: Controller name.
#     Col. 4: Item number.
#     Col. 5: Element number.
#     Col. 6: Type.
#     Col. 7: Group.
#     Col. 8: Word number.
#     Col. 9: Word.
#     Col. 10: Reading time.
#     Col. 11: Newline?
#     Col. 12: Sentence (or sentence MD5).
1582372780,54714d1695af79e64e9a8b5485501562,DashedAcceptabilityJudgment,196,0,filler,134,Okuduğunuz cümle doğal mı?,Evet (Q'ya basınız),NULL,1057
1582372780,54714d1695af79e64e9a8b5485501562,DashedAcceptabilityJudgment,138,0,expSA_d,16,1,Profesör,377,False,Profesör ve azimli asistanı araştıran dekan projeden beraber vazgeçti.
# Columns below this comment are as follows:
# 1. Time results were received.
# 2. MD5 hash of participant's IP address.
# 3. Controller name.
# 4. Item number.
# 5. Element number.
# 6. Type.
# 7. Group.
# 8. Word number.
# 9. Word.
# 10. Reading time.
# 11. Newline?
# 12. Sentence (or sentence MD5).
1582372780,54714d1695af79e64e9a8b5485501562,DashedAcceptabilityJudgment,138,0,expSA_d,16,2,ve,357,False,Profesör ve azimli asistanı araştıran dekan projeden beraber vazgeçti.
1582372780,54714d1695af79e64e9a8b5485501562,DashedAcceptabilityJudgment,138,0,expSA_d,16,3,azimli,336,False,Profesör ve azimli asistanı araştıran dekan projeden beraber vazgeçti.
1582372780,54714d1695af79e64e9a8b5485501562,DashedAcceptabilityJudgment,138,0,expSA_d,16,4,asistanı,321,False,Profesör ve azimli asistanı araştıran dekan projeden beraber vazgeçti.
1582372780,54714d1695af79e64e9a8b5485501562,DashedAcceptabilityJudgment,138,0,expSA_d,16,5,araştıran,341,False,Profesör ve azimli asistanı araştıran dekan projeden beraber vazgeçti.
1582372780,54714d1695af79e64e9a8b5485501562,DashedAcceptabilityJudgment,138,0,expSA_d,16,6,dekan,371,False,Profesör ve azimli asistanı araştıran dekan projeden beraber vazgeçti.
1582372780,54714d1695af79e64e9a8b5485501562,DashedAcceptabilityJudgment,138,0,expSA_d,16,7,projeden,395,False,Profesör ve azimli asistanı araştıran dekan projeden beraber vazgeçti.
1582372780,54714d1695af79e64e9a8b5485501562,DashedAcceptabilityJudgment,138,0,expSA_d,16,8,beraber,414,False,Profesör ve azimli asistanı araştıran dekan projeden beraber vazgeçti.
1582372780,54714d1695af79e64e9a8b5485501562,DashedAcceptabilityJudgment,138,0,expSA_d,16,9,vazgeçti.,1497,False,Profesör ve azimli asistanı araştıran dekan projeden beraber vazgeçti.
# The lines below this comment are in groups of 2.
# The formats of the lines in each of these groups are as follows:
#
# Line 1:
#     Col. 1: Time results were received.
#     Col. 2: MD5 hash of participant's IP address.
#     Col. 3: Controller name.
#     Col. 4: Item number.
#     Col. 5: Element number.
#     Col. 6: Type.
#     Col. 7: Group.
#     Col. 8: Question (NULL if none).
#     Col. 9: Answer.
#     Col. 10: Whether or not answer was correct (NULL if N/A).
#     Col. 11: Time taken to answer.
# Line 2:
#     Col. 1: Time results were received.
#     Col. 2: MD5 hash of participant's IP address.
#     Col. 3: Controller name.
#     Col. 4: Item number.
#     Col. 5: Element number.
#     Col. 6: Type.
#     Col. 7: Group.
#     Col. 8: Word number.
#     Col. 9: Word.
#     Col. 10: Reading time.
#     Col. 11: Newline?
#     Col. 12: Sentence (or sentence MD5).
1582372780,54714d1695af79e64e9a8b5485501562,DashedAcceptabilityJudgment,138,0,expSA_d,16,Okuduğunuz cümle doğal mı?,Hayır (P'ye basınız),NULL,1999
1582372780,54714d1695af79e64e9a8b5485501562,DashedAcceptabilityJudgment,176,0,filler,114,1,Elektrik,286,False,Elektrik faturası ve benzin ücretlerinin arttığı bir dönemdeyiz.
# Columns below this comment are as follows:
# 1. Time results were received.
# 2. MD5 hash of participant's IP address.
# 3. Controller name.
# 4. Item number.
# 5. Element number.
# 6. Type.
# 7. Group.
# 8. Word number.
# 9. Word.
# 10. Reading time.
# 11. Newline?
# 12. Sentence (or sentence MD5).
1582372780,54714d1695af79e64e9a8b5485501562,DashedAcceptabilityJudgment,176,0,filler,114,2,faturası,326,False,Elektrik faturası ve benzin ücretlerinin arttığı bir dönemdeyiz.
1582372780,54714d1695af79e64e9a8b5485501562,DashedAcceptabilityJudgment,176,0,filler,114,3,ve,365,False,Elektrik faturası ve benzin ücretlerinin arttığı bir dönemdeyiz.
1582372780,54714d1695af79e64e9a8b5485501562,DashedAcceptabilityJudgment,176,0,filler,114,4,benzin,538,False,Elektrik faturası ve benzin ücretlerinin arttığı bir dönemdeyiz.
1582372780,54714d1695af79e64e9a8b5485501562,DashedAcceptabilityJudgment,176,0,filler,114,5,ücretlerinin,330,False,Elektrik faturası ve benzin ücretlerinin arttığı bir dönemdeyiz.
1582372780,54714d1695af79e64e9a8b5485501562,DashedAcceptabilityJudgment,176,0,filler,114,6,arttığı,365,False,Elektrik faturası ve benzin ücretlerinin arttığı bir dönemdeyiz.
1582372780,54714d1695af79e64e9a8b5485501562,DashedAcceptabilityJudgment,176,0,filler,114,7,bir,374,False,Elektrik faturası ve benzin ücretlerinin arttığı bir dönemdeyiz.
1582372780,54714d1695af79e64e9a8b5485501562,DashedAcceptabilityJudgment,176,0,filler,114,8,dönemdeyiz.,2155,False,Elektrik faturası ve benzin ücretlerinin arttığı bir dönemdeyiz.
# The lines below this comment are in groups of 2.
# The formats of the lines in each of these groups are as follows:
#
# Line 1:
#     Col. 1: Time results were received.
#     Col. 2: MD5 hash of participant's IP address.
#     Col. 3: Controller name.
#     Col. 4: Item number.
#     Col. 5: Element number.
#     Col. 6: Type.
#     Col. 7: Group.
#     Col. 8: Question (NULL if none).
#     Col. 9: Answer.
#     Col. 10: Whether or not answer was correct (NULL if N/A).
#     Col. 11: Time taken to answer.
# Line 2:
#     Col. 1: Time results were received.
#     Col. 2: MD5 hash of participant's IP address.
#     Col. 3: Controller name.
#     Col. 4: Item number.
#     Col. 5: Element number.
#     Col. 6: Type.
#     Col. 7: Group.
#     Col. 8: Word number.
#     Col. 9: Word.
#     Col. 10: Reading time.
#     Col. 11: Newline?
#     Col. 12: Sentence (or sentence MD5).
1582372780,54714d1695af79e64e9a8b5485501562,DashedAcceptabilityJudgment,176,0,filler,114,Okuduğunuz cümle doğal mı?,Evet (Q'ya basınız),NULL,1068
1582372780,54714d1695af79e64e9a8b5485501562,DashedAcceptabilityJudgment,48,0,expSA_b,6,1,Akademisyen,444,False,Akademisyen ve sekreteri azarlayan rektör törene beraber katılacak.
# Columns below this comment are as follows:
# 1. Time results were received.
# 2. MD5 hash of participant's IP address.
# 3. Controller name.
# 4. Item number.
# 5. Element number.
# 6. Type.
# 7. Group.
# 8. Word number.
# 9. Word.
# 10. Reading time.
# 11. Newline?
# 12. Sentence (or sentence MD5).
1582372780,54714d1695af79e64e9a8b5485501562,DashedAcceptabilityJudgment,48,0,expSA_b,6,2,ve,352,False,Akademisyen ve sekreteri azarlayan rektör törene beraber katılacak.
1582372780,54714d1695af79e64e9a8b5485501562,DashedAcceptabilityJudgment,48,0,expSA_b,6,3,sekreteri,313,False,Akademisyen ve sekreteri azarlayan rektör törene beraber katılacak.
1582372780,54714d1695af79e64e9a8b5485501562,DashedAcceptabilityJudgment,48,0,expSA_b,6,4,azarlayan,443,False,Akademisyen ve sekreteri azarlayan rektör törene beraber katılacak.
1582372780,54714d1695af79e64e9a8b5485501562,DashedAcceptabilityJudgment,48,0,expSA_b,6,5,rektör,411,False,Akademisyen ve sekreteri azarlayan rektör törene beraber katılacak.
1582372780,54714d1695af79e64e9a8b5485501562,DashedAcceptabilityJudgment,48,0,expSA_b,6,6,törene,488,False,Akademisyen ve sekreteri azarlayan rektör törene beraber katılacak.
1582372780,54714d1695af79e64e9a8b5485501562,DashedAcceptabilityJudgment,48,0,expSA_b,6,7,beraber,623,False,Akademisyen ve sekreteri azarlayan rektör törene beraber katılacak.
1582372780,54714d1695af79e64e9a8b5485501562,DashedAcceptabilityJudgment,48,0,expSA_b,6,8,katılacak.,694,False,Akademisyen ve sekreteri azarlayan rektör törene beraber katılacak.
# The lines below this comment are in groups of 2.
# The formats of the lines in each of these groups are as follows:
#
# Line 1:
#     Col. 1: Time results were received.
#     Col. 2: MD5 hash of participant's IP address.
#     Col. 3: Controller name.
#     Col. 4: Item number.
#     Col. 5: Element number.
#     Col. 6: Type.
#     Col. 7: Group.
#     Col. 8: Question (NULL if none).
#     Col. 9: Answer.
#     Col. 10: Whether or not answer was correct (NULL if N/A).
#     Col. 11: Time taken to answer.
# Line 2:
#     Col. 1: Time results were received.
#     Col. 2: MD5 hash of participant's IP address.
#     Col. 3: Controller name.
#     Col. 4: Item number.
#     Col. 5: Element number.
#     Col. 6: Type.
#     Col. 7: Group.
#     Col. 8: Word number.
#     Col. 9: Word.
#     Col. 10: Reading time.
#     Col. 11: Newline?
#     Col. 12: Sentence (or sentence MD5).
1582372780,54714d1695af79e64e9a8b5485501562,DashedAcceptabilityJudgment,48,0,expSA_b,6,Okuduğunuz cümle doğal mı?,Evet (Q'ya basınız),NULL,2864
1582372780,54714d1695af79e64e9a8b5485501562,DashedAcceptabilityJudgment,193,0,filler,131,1,Ateşi,459,False,Ateşi yükselen bebeği hastaneye yetiştirmek için hemen arabaya koştuk.
# Columns below this comment are as follows:
# 1. Time results were received.
# 2. MD5 hash of participant's IP address.
# 3. Controller name.
# 4. Item number.
# 5. Element number.
# 6. Type.
# 7. Group.
# 8. Word number.
# 9. Word.
# 10. Reading time.
# 11. Newline?
# 12. Sentence (or sentence MD5).
1582372780,54714d1695af79e64e9a8b5485501562,DashedAcceptabilityJudgment,193,0,filler,131,2,yükselen,400,False,Ateşi yükselen bebeği hastaneye yetiştirmek için hemen arabaya koştuk.
1582372780,54714d1695af79e64e9a8b5485501562,DashedAcceptabilityJudgment,193,0,filler,131,3,bebeği,459,False,Ateşi yükselen bebeği hastaneye yetiştirmek için hemen arabaya koştuk.
1582372780,54714d1695af79e64e9a8b5485501562,DashedAcceptabilityJudgment,193,0,filler,131,4,hastaneye,547,False,Ateşi yükselen bebeği hastaneye yetiştirmek için hemen arabaya koştuk.
1582372780,54714d1695af79e64e9a8b5485501562,DashedAcceptabilityJudgment,193,0,filler,131,5,yetiştirmek,434,False,Ateşi yükselen bebeği hastaneye yetiştirmek için hemen arabaya koştuk.
1582372780,54714d1695af79e64e9a8b5485501562,DashedAcceptabilityJudgment,193,0,filler,131,6,için,445,False,Ateşi yükselen bebeği hastaneye yetiştirmek için hemen arabaya koştuk.
1582372780,54714d1695af79e64e9a8b5485501562,DashedAcceptabilityJudgment,193,0,filler,131,7,hemen,497,False,Ateşi yükselen bebeği hastaneye yetiştirmek için hemen arabaya koştuk.
1582372780,54714d1695af79e64e9a8b5485501562,DashedAcceptabilityJudgment,193,0,filler,131,8,arabaya,544,False,Ateşi yükselen bebeği hastaneye yetiştirmek için hemen arabaya koştuk.
1582372780,54714d1695af79e64e9a8b5485501562,DashedAcceptabilityJudgment,193,0,filler,131,9,koştuk.,1222,False,Ateşi yükselen bebeği hastaneye yetiştirmek için hemen arabaya koştuk.
# The lines below this comment are in groups of 2.
# The formats of the lines in each of these groups are as follows:
#
# Line 1:
#     Col. 1: Time results were received.
#     Col. 2: MD5 hash of participant's IP address.
#     Col. 3: Controller name.
#     Col. 4: Item number.
#     Col. 5: Element number.
#     Col. 6: Type.
#     Col. 7: Group.
#     Col. 8: Question (NULL if none).
#     Col. 9: Answer.
#     Col. 10: Whether or not answer was correct (NULL if N/A).
#     Col. 11: Time taken to answer.
# Line 2:
#     Col. 1: Time results were received.
#     Col. 2: MD5 hash of participant's IP address.
#     Col. 3: Controller name.
#     Col. 4: Item number.
#     Col. 5: Element number.
#     Col. 6: Type.
#     Col. 7: Group.
#     Col. 8: Word number.
#     Col. 9: Word.
#     Col. 10: Reading time.
#     Col. 11: Newline?
#     Col. 12: Sentence (or sentence MD5).
1582372780,54714d1695af79e64e9a8b5485501562,DashedAcceptabilityJudgment,193,0,filler,131,Okuduğunuz cümle doğal mı?,Evet (Q'ya basınız),NULL,1943
1582372780,54714d1695af79e64e9a8b5485501562,DashedAcceptabilityJudgment,7,0,expSA_a,5,1,Adam,326,False,Adam ve garsonu farkeden kadın restorandan tek_başına çıkacak
# Columns below this comment are as follows:
# 1. Time results were received.
# 2. MD5 hash of participant's IP address.
# 3. Controller name.
# 4. Item number.
# 5. Element number.
# 6. Type.
# 7. Group.
# 8. Word number.
# 9. Word.
# 10. Reading time.
# 11. Newline?
# 12. Sentence (or sentence MD5).
1582372780,54714d1695af79e64e9a8b5485501562,DashedAcceptabilityJudgment,7,0,expSA_a,5,2,ve,335,False,Adam ve garsonu farkeden kadın restorandan tek_başına çıkacak
1582372780,54714d1695af79e64e9a8b5485501562,DashedAcceptabilityJudgment,7,0,expSA_a,5,3,garsonu,350,False,Adam ve garsonu farkeden kadın restorandan tek_başına çıkacak
1582372780,54714d1695af79e64e9a8b5485501562,DashedAcceptabilityJudgment,7,0,expSA_a,5,4,farkeden,321,False,Adam ve garsonu farkeden kadın restorandan tek_başına çıkacak
1582372780,54714d1695af79e64e9a8b5485501562,DashedAcceptabilityJudgment,7,0,expSA_a,5,5,kadın,337,False,Adam ve garsonu farkeden kadın restorandan tek_başına çıkacak
1582372780,54714d1695af79e64e9a8b5485501562,DashedAcceptabilityJudgment,7,0,expSA_a,5,6,restorandan,1121,False,Adam ve garsonu farkeden kadın restorandan tek_başına çıkacak
1582372780,54714d1695af79e64e9a8b5485501562,DashedAcceptabilityJudgment,7,0,expSA_a,5,7,tek başına,677,False,Adam ve garsonu farkeden kadın restorandan tek_başına çıkacak
1582372780,54714d1695af79e64e9a8b5485501562,DashedAcceptabilityJudgment,7,0,expSA_a,5,8,çıkacak,2579,False,Adam ve garsonu farkeden kadın restorandan tek_başına çıkacak
# The lines below this comment are in groups of 2.
# The formats of the lines in each of these groups are as follows:
#
# Line 1:
#     Col. 1: Time results were received.
#     Col. 2: MD5 hash of participant's IP address.
#     Col. 3: Controller name.
#     Col. 4: Item number.
#     Col. 5: Element number.
#     Col. 6: Type.
#     Col. 7: Group.
#     Col. 8: Question (NULL if none).
#     Col. 9: Answer.
#     Col. 10: Whether or not answer was correct (NULL if N/A).
#     Col. 11: Time taken to answer.
# Line 2:
#     Col. 1: Time results were received.
#     Col. 2: MD5 hash of participant's IP address.
#     Col. 3: Controller name.
#     Col. 4: Item number.
#     Col. 5: Element number.
#     Col. 6: Type.
#     Col. 7: Group.
#     Col. 8: Word number.
#     Col. 9: Word.
#     Col. 10: Reading time.
#     Col. 11: Newline?
#     Col. 12: Sentence (or sentence MD5).
1582372780,54714d1695af79e64e9a8b5485501562,DashedAcceptabilityJudgment,7,0,expSA_a,5,Okuduğunuz cümle doğal mı?,Evet (Q'ya basınız),NULL,2793
1582372780,54714d1695af79e64e9a8b5485501562,DashedAcceptabilityJudgment,170,0,filler,108,1,Yeni,330,False,Yeni ameliyat olan hastayı hemşire çok fena azarladı.
# Columns below this comment are as follows:
# 1. Time results were received.
# 2. MD5 hash of participant's IP address.
# 3. Controller name.
# 4. Item number.
# 5. Element number.
# 6. Type.
# 7. Group.
# 8. Word number.
# 9. Word.
# 10. Reading time.
# 11. Newline?
# 12. Sentence (or sentence MD5).
1582372780,54714d1695af79e64e9a8b5485501562,DashedAcceptabilityJudgment,170,0,filler,108,2,ameliyat,396,False,Yeni ameliyat olan hastayı hemşire çok fena azarladı.
1582372780,54714d1695af79e64e9a8b5485501562,DashedAcceptabilityJudgment,170,0,filler,108,3,olan,406,False,Yeni ameliyat olan hastayı hemşire çok fena azarladı.
1582372780,54714d1695af79e64e9a8b5485501562,DashedAcceptabilityJudgment,170,0,filler,108,4,hastayı,411,False,Yeni ameliyat olan hastayı hemşire çok fena azarladı.
1582372780,54714d1695af79e64e9a8b5485501562,DashedAcceptabilityJudgment,170,0,filler,108,5,hemşire,508,False,Yeni ameliyat olan hastayı hemşire çok fena azarladı.
1582372780,54714d1695af79e64e9a8b5485501562,DashedAcceptabilityJudgment,170,0,filler,108,6,çok,444,False,Yeni ameliyat olan hastayı hemşire çok fena azarladı.
1582372780,54714d1695af79e64e9a8b5485501562,DashedAcceptabilityJudgment,170,0,filler,108,7,fena,464,False,Yeni ameliyat olan hastayı hemşire çok fena azarladı.
1582372780,54714d1695af79e64e9a8b5485501562,DashedAcceptabilityJudgment,170,0,filler,108,8,azarladı.,901,False,Yeni ameliyat olan hastayı hemşire çok fena azarladı.
# The lines below this comment are in groups of 2.
# The formats of the lines in each of these groups are as follows:
#
# Line 1:
#     Col. 1: Time results were received.
#     Col. 2: MD5 hash of participant's IP address.
#     Col. 3: Controller name.
#     Col. 4: Item number.
#     Col. 5: Element number.
#     Col. 6: Type.
#     Col. 7: Group.
#     Col. 8: Question (NULL if none).
#     Col. 9: Answer.
#     Col. 10: Whether or not answer was correct (NULL if N/A).
#     Col. 11: Time taken to answer.
# Line 2:
#     Col. 1: Time results were received.
#     Col. 2: MD5 hash of participant's IP address.
#     Col. 3: Controller name.
#     Col. 4: Item number.
#     Col. 5: Element number.
#     Col. 6: Type.
#     Col. 7: Group.
#     Col. 8: Word number.
#     Col. 9: Word.
#     Col. 10: Reading time.
#     Col. 11: Newline?
#     Col. 12: Sentence (or sentence MD5).
1582372780,54714d1695af79e64e9a8b5485501562,DashedAcceptabilityJudgment,170,0,filler,108,Okuduğunuz cümle doğal mı?,Evet (Q'ya basınız),NULL,555
1582372780,54714d1695af79e64e9a8b5485501562,DashedAcceptabilityJudgment,134,0,expSA_d,12,1,Hamal,622,False,Hamal ve kurnaz tezgahtarı bulan sütçü pazara beraber gidiyor.
# Columns below this comment are as follows:
# 1. Time results were received.
# 2. MD5 hash of participant's IP address.
# 3. Controller name.
# 4. Item number.
# 5. Element number.
# 6. Type.
# 7. Group.
# 8. Word number.
# 9. Word.
# 10. Reading time.
# 11. Newline?
# 12. Sentence (or sentence MD5).
1582372780,54714d1695af79e64e9a8b5485501562,DashedAcceptabilityJudgment,134,0,expSA_d,12,2,ve,576,False,Hamal ve kurnaz tezgahtarı bulan sütçü pazara beraber gidiyor.
1582372780,54714d1695af79e64e9a8b5485501562,DashedAcceptabilityJudgment,134,0,expSA_d,12,3,kurnaz,372,False,Hamal ve kurnaz tezgahtarı bulan sütçü pazara beraber gidiyor.
1582372780,54714d1695af79e64e9a8b5485501562,DashedAcceptabilityJudgment,134,0,expSA_d,12,4,tezgahtarı,589,False,Hamal ve kurnaz tezgahtarı bulan sütçü pazara beraber gidiyor.
1582372780,54714d1695af79e64e9a8b5485501562,DashedAcceptabilityJudgment,134,0,expSA_d,12,5,bulan,1422,False,Hamal ve kurnaz tezgahtarı bulan sütçü pazara beraber gidiyor.
1582372780,54714d1695af79e64e9a8b5485501562,DashedAcceptabilityJudgment,134,0,expSA_d,12,6,sütçü,900,False,Hamal ve kurnaz tezgahtarı bulan sütçü pazara beraber gidiyor.
1582372780,54714d1695af79e64e9a8b5485501562,DashedAcceptabilityJudgment,134,0,expSA_d,12,7,pazara,699,False,Hamal ve kurnaz tezgahtarı bulan sütçü pazara beraber gidiyor.
1582372780,54714d1695af79e64e9a8b5485501562,DashedAcceptabilityJudgment,134,0,expSA_d,12,8,beraber,579,False,Hamal ve kurnaz tezgahtarı bulan sütçü pazara beraber gidiyor.
1582372780,54714d1695af79e64e9a8b5485501562,DashedAcceptabilityJudgment,134,0,expSA_d,12,9,gidiyor.,340,False,Hamal ve kurnaz tezgahtarı bulan sütçü pazara beraber gidiyor.
# The lines below this comment are in groups of 2.
# The formats of the lines in each of these groups are as follows:
#
# Line 1:
#     Col. 1: Time results were received.
#     Col. 2: MD5 hash of participant's IP address.
#     Col. 3: Controller name.
#     Col. 4: Item number.
#     Col. 5: Element number.
#     Col. 6: Type.
#     Col. 7: Group.
#     Col. 8: Question (NULL if none).
#     Col. 9: Answer.
#     Col. 10: Whether or not answer was correct (NULL if N/A).
#     Col. 11: Time taken to answer.
# Line 2:
#     Col. 1: Time results were received.
#     Col. 2: MD5 hash of participant's IP address.
#     Col. 3: Controller name.
#     Col. 4: Item number.
#     Col. 5: Element number.
#     Col. 6: Type.
#     Col. 7: Group.
#     Col. 8: Word number.
#     Col. 9: Word.
#     Col. 10: Reading time.
#     Col. 11: Newline?
#     Col. 12: Sentence (or sentence MD5).
1582372780,54714d1695af79e64e9a8b5485501562,DashedAcceptabilityJudgment,134,0,expSA_d,12,Okuduğunuz cümle doğal mı?,Evet (Q'ya basınız),NULL,2153
1582372780,54714d1695af79e64e9a8b5485501562,DashedAcceptabilityJudgment,173,0,filler,111,1,Emekli,415,False,Emekli öğretmen karşı karşıya kaldığı garip durumu anlayamadı.
# Columns below this comment are as follows:
# 1. Time results were received.
# 2. MD5 hash of participant's IP address.
# 3. Controller name.
# 4. Item number.
# 5. Element number.
# 6. Type.
# 7. Group.
# 8. Word number.
# 9. Word.
# 10. Reading time.
# 11. Newline?
# 12. Sentence (or sentence MD5).
1582372780,54714d1695af79e64e9a8b5485501562,DashedAcceptabilityJudgment,173,0,filler,111,2,öğretmen,412,False,Emekli öğretmen karşı karşıya kaldığı garip durumu anlayamadı.
1582372780,54714d1695af79e64e9a8b5485501562,DashedAcceptabilityJudgment,173,0,filler,111,3,karşı,368,False,Emekli öğretmen karşı karşıya kaldığı garip durumu anlayamadı.
1582372780,54714d1695af79e64e9a8b5485501562,DashedAcceptabilityJudgment,173,0,filler,111,4,karşıya,398,False,Emekli öğretmen karşı karşıya kaldığı garip durumu anlayamadı.
1582372780,54714d1695af79e64e9a8b5485501562,DashedAcceptabilityJudgment,173,0,filler,111,5,kaldığı,355,False,Emekli öğretmen karşı karşıya kaldığı garip durumu anlayamadı.
1582372780,54714d1695af79e64e9a8b5485501562,DashedAcceptabilityJudgment,173,0,filler,111,6,garip,531,False,Emekli öğretmen karşı karşıya kaldığı garip durumu anlayamadı.
1582372780,54714d1695af79e64e9a8b5485501562,DashedAcceptabilityJudgment,173,0,filler,111,7,durumu,358,False,Emekli öğretmen karşı karşıya kaldığı garip durumu anlayamadı.
1582372780,54714d1695af79e64e9a8b5485501562,DashedAcceptabilityJudgment,173,0,filler,111,8,anlayamadı.,729,False,Emekli öğretmen karşı karşıya kaldığı garip durumu anlayamadı.
# The lines below this comment are in groups of 2.
# The formats of the lines in each of these groups are as follows:
#
# Line 1:
#     Col. 1: Time results were received.
#     Col. 2: MD5 hash of participant's IP address.
#     Col. 3: Controller name.
#     Col. 4: Item number.
#     Col. 5: Element number.
#     Col. 6: Type.
#     Col. 7: Group.
#     Col. 8: Question (NULL if none).
#     Col. 9: Answer.
#     Col. 10: Whether or not answer was correct (NULL if N/A).
#     Col. 11: Time taken to answer.
# Line 2:
#     Col. 1: Time results were received.
#     Col. 2: MD5 hash of participant's IP address.
#     Col. 3: Controller name.
#     Col. 4: Item number.
#     Col. 5: Element number.
#     Col. 6: Type.
#     Col. 7: Group.
#     Col. 8: Word number.
#     Col. 9: Word.
#     Col. 10: Reading time.
#     Col. 11: Newline?
#     Col. 12: Sentence (or sentence MD5).
1582372780,54714d1695af79e64e9a8b5485501562,DashedAcceptabilityJudgment,173,0,filler,111,Okuduğunuz cümle doğal mı?,Evet (Q'ya basınız),NULL,314
1582372780,54714d1695af79e64e9a8b5485501562,DashedAcceptabilityJudgment,27,0,expSA_a,25,1,Marangoz,289,False,Marangoz ve ustabaşına takılan mimar siparişleri tek_başına alıyor.
# Columns below this comment are as follows:
# 1. Time results were received.
# 2. MD5 hash of participant's IP address.
# 3. Controller name.
# 4. Item number.
# 5. Element number.
# 6. Type.
# 7. Group.
# 8. Word number.
# 9. Word.
# 10. Reading time.
# 11. Newline?
# 12. Sentence (or sentence MD5).
